"rt","url","trial_type","trial_index","plugin_version","time_elapsed","subject","fullscreen","age","gender","handedness","language","success","type","response","question_order","timeout","failed_images","failed_audio","failed_video","stimulus","task","correct_response","correct","correct_response_meaning"
"31096","consentA2.html","external-html","0","2.0.0","31162","3ld13jft8ob2qkp","true","20","weiblich","links","Deutsch","","","","","","","","","","","","",""
"3722","","fullscreen","1","2.0.0","35897","3ld13jft8ob2qkp","true","20","weiblich","links","Deutsch","true","","","","","","","","","","","",""
"3924","","survey-text","2","2.0.0","39833","3ld13jft8ob2qkp","true","20","weiblich","links","Deutsch","","demo","{""Q0"":""20""}","","","","","","","","","",""
"7113","","survey-multi-choice","3","2.0.0","46952","3ld13jft8ob2qkp","true","20","weiblich","links","Deutsch","","","{""gender"":""weiblich"",""handedness"":""links"",""language"":""Deutsch""}","[0,1,2]","","","","","","","","",""
"","","preload","4","2.0.0","51320","3ld13jft8ob2qkp","true","20","weiblich","links","Deutsch","true","","","","false","[]","[]","[]","","","","",""
"","","preload","5","2.0.0","52565","3ld13jft8ob2qkp","true","20","weiblich","links","Deutsch","true","","","","false","[]","[]","[]","","","","",""
"","","preload","6","2.0.0","54071","3ld13jft8ob2qkp","true","20","weiblich","links","Deutsch","true","","","","false","[]","[]","[]","","","","",""
"2205","","html-keyboard-response","7","2.0.0","56276","3ld13jft8ob2qkp","true","20","weiblich","links","Deutsch","","","j","","","","","","Willkommen zum Experiment. Drücken Sie eine beliebige Taste, um zu beginnen.","","","",""
"8934","","html-keyboard-response","8","2.0.0","65212","3ld13jft8ob2qkp","true","20","weiblich","links","Deutsch","","","j","","","","","","
    <p>In diesem Experiment werden nacheinander automatisch verschiedene Gesichter angezeigt.</p>
    <p>Bitte achten Sie genau auf jedes Gesicht und den dazugehörigen Namen.</p>
    <p>Die Gesichter erscheinen von selbst und Sie brauchen nichts weiter zu tun, außer aufmerksam zu sein.</p>
    <p>Drücken Sie eine beliebige Taste, um zu beginnen, wenn Sie bereit sind.</p>
  ","","","",""
"null","","html-keyboard-response","9","2.0.0","66235","3ld13jft8ob2qkp","true","20","weiblich","links","Deutsch","","","null","","","","","","<div style=""font-size:60px;"">+</div>","fixation","","",""
"null","","html-keyboard-response","10","2.0.0","67252","3ld13jft8ob2qkp","true","20","weiblich","links","Deutsch","","","null","","","","","","
      <img class=""person-img"" src=""https://raw.githubusercontent.com/saramff/face-recognition-images/refs/heads/master//women/woman_49.jpg"">
      <p class=""person-name"">Sina</p>
    ","","","",""
"null","","html-keyboard-response","11","2.0.0","68265","3ld13jft8ob2qkp","true","20","weiblich","links","Deutsch","","","null","","","","","","<div style=""font-size:60px;"">+</div>","fixation","","",""
"null","","html-keyboard-response","12","2.0.0","69282","3ld13jft8ob2qkp","true","20","weiblich","links","Deutsch","","","null","","","","","","
      <img class=""person-img"" src=""https://raw.githubusercontent.com/saramff/face-recognition-images/refs/heads/master//women/woman_38.jpg"">
      <p class=""person-name"">Nadine</p>
    ","","","",""
"null","","html-keyboard-response","13","2.0.0","70296","3ld13jft8ob2qkp","true","20","weiblich","links","Deutsch","","","null","","","","","","<div style=""font-size:60px;"">+</div>","fixation","","",""
"null","","html-keyboard-response","14","2.0.0","71304","3ld13jft8ob2qkp","true","20","weiblich","links","Deutsch","","","null","","","","","","
      <img class=""person-img"" src=""https://raw.githubusercontent.com/saramff/face-recognition-images/refs/heads/master//men/man_48.jpg"">
      <p class=""person-name"">Guido</p>
    ","","","",""
"null","","html-keyboard-response","15","2.0.0","72318","3ld13jft8ob2qkp","true","20","weiblich","links","Deutsch","","","null","","","","","","<div style=""font-size:60px;"">+</div>","fixation","","",""
"null","","html-keyboard-response","16","2.0.0","73330","3ld13jft8ob2qkp","true","20","weiblich","links","Deutsch","","","null","","","","","","
      <img class=""person-img"" src=""https://raw.githubusercontent.com/saramff/face-recognition-images/refs/heads/master//women/woman_78.jpg"">
      <p class=""person-name"">Zoe</p>
    ","","","",""
"null","","html-keyboard-response","17","2.0.0","74341","3ld13jft8ob2qkp","true","20","weiblich","links","Deutsch","","","null","","","","","","<div style=""font-size:60px;"">+</div>","fixation","","",""
"null","","html-keyboard-response","18","2.0.0","75348","3ld13jft8ob2qkp","true","20","weiblich","links","Deutsch","","","null","","","","","","
      <img class=""person-img"" src=""https://raw.githubusercontent.com/saramff/face-recognition-images/refs/heads/master//women/woman_95.jpg"">
      <p class=""person-name"">Johanna</p>
    ","","","",""
"null","","html-keyboard-response","19","2.0.0","76374","3ld13jft8ob2qkp","true","20","weiblich","links","Deutsch","","","null","","","","","","<div style=""font-size:60px;"">+</div>","fixation","","",""
"null","","html-keyboard-response","20","2.0.0","77378","3ld13jft8ob2qkp","true","20","weiblich","links","Deutsch","","","null","","","","","","
      <img class=""person-img"" src=""https://raw.githubusercontent.com/saramff/face-recognition-images/refs/heads/master//men/man_25.jpg"">
      <p class=""person-name"">Aaron</p>
    ","","","",""
"null","","html-keyboard-response","21","2.0.0","78391","3ld13jft8ob2qkp","true","20","weiblich","links","Deutsch","","","null","","","","","","<div style=""font-size:60px;"">+</div>","fixation","","",""
"null","","html-keyboard-response","22","2.0.0","79393","3ld13jft8ob2qkp","true","20","weiblich","links","Deutsch","","","null","","","","","","
      <img class=""person-img"" src=""https://raw.githubusercontent.com/saramff/face-recognition-images/refs/heads/master//men/man_64.jpg"">
      <p class=""person-name"">Johannes</p>
    ","","","",""
"null","","html-keyboard-response","23","2.0.0","80402","3ld13jft8ob2qkp","true","20","weiblich","links","Deutsch","","","null","","","","","","<div style=""font-size:60px;"">+</div>","fixation","","",""
"null","","html-keyboard-response","24","2.0.0","81410","3ld13jft8ob2qkp","true","20","weiblich","links","Deutsch","","","null","","","","","","
      <img class=""person-img"" src=""https://raw.githubusercontent.com/saramff/face-recognition-images/refs/heads/master//women/woman_10.jpg"">
      <p class=""person-name"">Klara</p>
    ","","","",""
"null","","html-keyboard-response","25","2.0.0","82433","3ld13jft8ob2qkp","true","20","weiblich","links","Deutsch","","","null","","","","","","<div style=""font-size:60px;"">+</div>","fixation","","",""
"null","","html-keyboard-response","26","2.0.0","83435","3ld13jft8ob2qkp","true","20","weiblich","links","Deutsch","","","null","","","","","","
      <img class=""person-img"" src=""https://raw.githubusercontent.com/saramff/face-recognition-images/refs/heads/master//men/man_51.jpg"">
      <p class=""person-name"">Friedrich</p>
    ","","","",""
"null","","html-keyboard-response","27","2.0.0","84460","3ld13jft8ob2qkp","true","20","weiblich","links","Deutsch","","","null","","","","","","<div style=""font-size:60px;"">+</div>","fixation","","",""
"null","","html-keyboard-response","28","2.0.0","85476","3ld13jft8ob2qkp","true","20","weiblich","links","Deutsch","","","null","","","","","","
      <img class=""person-img"" src=""https://raw.githubusercontent.com/saramff/face-recognition-images/refs/heads/master//women/woman_51.jpg"">
      <p class=""person-name"">Ariane</p>
    ","","","",""
"null","","html-keyboard-response","29","2.0.0","86491","3ld13jft8ob2qkp","true","20","weiblich","links","Deutsch","","","null","","","","","","<div style=""font-size:60px;"">+</div>","fixation","","",""
"null","","html-keyboard-response","30","2.0.0","87505","3ld13jft8ob2qkp","true","20","weiblich","links","Deutsch","","","null","","","","","","
      <img class=""person-img"" src=""https://raw.githubusercontent.com/saramff/face-recognition-images/refs/heads/master//women/woman_58.jpg"">
      <p class=""person-name"">Ronja</p>
    ","","","",""
"null","","html-keyboard-response","31","2.0.0","88532","3ld13jft8ob2qkp","true","20","weiblich","links","Deutsch","","","null","","","","","","<div style=""font-size:60px;"">+</div>","fixation","","",""
"null","","html-keyboard-response","32","2.0.0","89539","3ld13jft8ob2qkp","true","20","weiblich","links","Deutsch","","","null","","","","","","
      <img class=""person-img"" src=""https://raw.githubusercontent.com/saramff/face-recognition-images/refs/heads/master//men/man_86.jpg"">
      <p class=""person-name"">Marius</p>
    ","","","",""
"null","","html-keyboard-response","33","2.0.0","90567","3ld13jft8ob2qkp","true","20","weiblich","links","Deutsch","","","null","","","","","","<div style=""font-size:60px;"">+</div>","fixation","","",""
"null","","html-keyboard-response","34","2.0.0","91580","3ld13jft8ob2qkp","true","20","weiblich","links","Deutsch","","","null","","","","","","
      <img class=""person-img"" src=""https://raw.githubusercontent.com/saramff/face-recognition-images/refs/heads/master//men/man_23.jpg"">
      <p class=""person-name"">Sebastian</p>
    ","","","",""
"null","","html-keyboard-response","35","2.0.0","92605","3ld13jft8ob2qkp","true","20","weiblich","links","Deutsch","","","null","","","","","","<div style=""font-size:60px;"">+</div>","fixation","","",""
"null","","html-keyboard-response","36","2.0.0","93614","3ld13jft8ob2qkp","true","20","weiblich","links","Deutsch","","","null","","","","","","
      <img class=""person-img"" src=""https://raw.githubusercontent.com/saramff/face-recognition-images/refs/heads/master//men/man_22.jpg"">
      <p class=""person-name"">Rolf</p>
    ","","","",""
"null","","html-keyboard-response","37","2.0.0","94625","3ld13jft8ob2qkp","true","20","weiblich","links","Deutsch","","","null","","","","","","<div style=""font-size:60px;"">+</div>","fixation","","",""
"null","","html-keyboard-response","38","2.0.0","95636","3ld13jft8ob2qkp","true","20","weiblich","links","Deutsch","","","null","","","","","","
      <img class=""person-img"" src=""https://raw.githubusercontent.com/saramff/face-recognition-images/refs/heads/master//men/man_36.jpg"">
      <p class=""person-name"">Martin</p>
    ","","","",""
"null","","html-keyboard-response","39","2.0.0","96660","3ld13jft8ob2qkp","true","20","weiblich","links","Deutsch","","","null","","","","","","<div style=""font-size:60px;"">+</div>","fixation","","",""
"null","","html-keyboard-response","40","2.0.0","97675","3ld13jft8ob2qkp","true","20","weiblich","links","Deutsch","","","null","","","","","","
      <img class=""person-img"" src=""https://raw.githubusercontent.com/saramff/face-recognition-images/refs/heads/master//men/man_42.jpg"">
      <p class=""person-name"">Felix</p>
    ","","","",""
"null","","html-keyboard-response","41","2.0.0","98691","3ld13jft8ob2qkp","true","20","weiblich","links","Deutsch","","","null","","","","","","<div style=""font-size:60px;"">+</div>","fixation","","",""
"null","","html-keyboard-response","42","2.0.0","99705","3ld13jft8ob2qkp","true","20","weiblich","links","Deutsch","","","null","","","","","","
      <img class=""person-img"" src=""https://raw.githubusercontent.com/saramff/face-recognition-images/refs/heads/master//women/woman_21.jpg"">
      <p class=""person-name"">Charlotte</p>
    ","","","",""
"null","","html-keyboard-response","43","2.0.0","100724","3ld13jft8ob2qkp","true","20","weiblich","links","Deutsch","","","null","","","","","","<div style=""font-size:60px;"">+</div>","fixation","","",""
"null","","html-keyboard-response","44","2.0.0","101730","3ld13jft8ob2qkp","true","20","weiblich","links","Deutsch","","","null","","","","","","
      <img class=""person-img"" src=""https://raw.githubusercontent.com/saramff/face-recognition-images/refs/heads/master//women/woman_44.jpg"">
      <p class=""person-name"">Janina</p>
    ","","","",""
"null","","html-keyboard-response","45","2.0.0","102739","3ld13jft8ob2qkp","true","20","weiblich","links","Deutsch","","","null","","","","","","<div style=""font-size:60px;"">+</div>","fixation","","",""
"null","","html-keyboard-response","46","2.0.0","103747","3ld13jft8ob2qkp","true","20","weiblich","links","Deutsch","","","null","","","","","","
      <img class=""person-img"" src=""https://raw.githubusercontent.com/saramff/face-recognition-images/refs/heads/master//men/man_26.jpg"">
      <p class=""person-name"">Konrad</p>
    ","","","",""
"null","","html-keyboard-response","47","2.0.0","104758","3ld13jft8ob2qkp","true","20","weiblich","links","Deutsch","","","null","","","","","","<div style=""font-size:60px;"">+</div>","fixation","","",""
"null","","html-keyboard-response","48","2.0.0","105768","3ld13jft8ob2qkp","true","20","weiblich","links","Deutsch","","","null","","","","","","
      <img class=""person-img"" src=""https://raw.githubusercontent.com/saramff/face-recognition-images/refs/heads/master//men/man_37.jpg"">
      <p class=""person-name"">Adrian</p>
    ","","","",""
"null","","html-keyboard-response","49","2.0.0","106783","3ld13jft8ob2qkp","true","20","weiblich","links","Deutsch","","","null","","","","","","<div style=""font-size:60px;"">+</div>","fixation","","",""
"null","","html-keyboard-response","50","2.0.0","107801","3ld13jft8ob2qkp","true","20","weiblich","links","Deutsch","","","null","","","","","","
      <img class=""person-img"" src=""https://raw.githubusercontent.com/saramff/face-recognition-images/refs/heads/master//men/man_52.jpg"">
      <p class=""person-name"">Dirk</p>
    ","","","",""
"null","","html-keyboard-response","51","2.0.0","108820","3ld13jft8ob2qkp","true","20","weiblich","links","Deutsch","","","null","","","","","","<div style=""font-size:60px;"">+</div>","fixation","","",""
"null","","html-keyboard-response","52","2.0.0","109830","3ld13jft8ob2qkp","true","20","weiblich","links","Deutsch","","","null","","","","","","
      <img class=""person-img"" src=""https://raw.githubusercontent.com/saramff/face-recognition-images/refs/heads/master//women/woman_25.jpg"">
      <p class=""person-name"">Lotte</p>
    ","","","",""
"null","","html-keyboard-response","53","2.0.0","110844","3ld13jft8ob2qkp","true","20","weiblich","links","Deutsch","","","null","","","","","","<div style=""font-size:60px;"">+</div>","fixation","","",""
"null","","html-keyboard-response","54","2.0.0","111848","3ld13jft8ob2qkp","true","20","weiblich","links","Deutsch","","","null","","","","","","
      <img class=""person-img"" src=""https://raw.githubusercontent.com/saramff/face-recognition-images/refs/heads/master//women/woman_67.jpg"">
      <p class=""person-name"">Alma</p>
    ","","","",""
"null","","html-keyboard-response","55","2.0.0","112873","3ld13jft8ob2qkp","true","20","weiblich","links","Deutsch","","","null","","","","","","<div style=""font-size:60px;"">+</div>","fixation","","",""
"null","","html-keyboard-response","56","2.0.0","113881","3ld13jft8ob2qkp","true","20","weiblich","links","Deutsch","","","null","","","","","","
      <img class=""person-img"" src=""https://raw.githubusercontent.com/saramff/face-recognition-images/refs/heads/master//men/man_56.jpg"">
      <p class=""person-name"">Christoph</p>
    ","","","",""
"null","","html-keyboard-response","57","2.0.0","114897","3ld13jft8ob2qkp","true","20","weiblich","links","Deutsch","","","null","","","","","","<div style=""font-size:60px;"">+</div>","fixation","","",""
"null","","html-keyboard-response","58","2.0.0","115908","3ld13jft8ob2qkp","true","20","weiblich","links","Deutsch","","","null","","","","","","
      <img class=""person-img"" src=""https://raw.githubusercontent.com/saramff/face-recognition-images/refs/heads/master//men/man_6.jpg"">
      <p class=""person-name"">Ralf</p>
    ","","","",""
"null","","html-keyboard-response","59","2.0.0","116918","3ld13jft8ob2qkp","true","20","weiblich","links","Deutsch","","","null","","","","","","<div style=""font-size:60px;"">+</div>","fixation","","",""
"null","","html-keyboard-response","60","2.0.0","117926","3ld13jft8ob2qkp","true","20","weiblich","links","Deutsch","","","null","","","","","","
      <img class=""person-img"" src=""https://raw.githubusercontent.com/saramff/face-recognition-images/refs/heads/master//women/woman_70.jpg"">
      <p class=""person-name"">Carolin</p>
    ","","","",""
"null","","html-keyboard-response","61","2.0.0","118943","3ld13jft8ob2qkp","true","20","weiblich","links","Deutsch","","","null","","","","","","<div style=""font-size:60px;"">+</div>","fixation","","",""
"null","","html-keyboard-response","62","2.0.0","119957","3ld13jft8ob2qkp","true","20","weiblich","links","Deutsch","","","null","","","","","","
      <img class=""person-img"" src=""https://raw.githubusercontent.com/saramff/face-recognition-images/refs/heads/master//men/man_53.jpg"">
      <p class=""person-name"">Moritz</p>
    ","","","",""
"null","","html-keyboard-response","63","2.0.0","120985","3ld13jft8ob2qkp","true","20","weiblich","links","Deutsch","","","null","","","","","","<div style=""font-size:60px;"">+</div>","fixation","","",""
"null","","html-keyboard-response","64","2.0.0","122000","3ld13jft8ob2qkp","true","20","weiblich","links","Deutsch","","","null","","","","","","
      <img class=""person-img"" src=""https://raw.githubusercontent.com/saramff/face-recognition-images/refs/heads/master//men/man_75.jpg"">
      <p class=""person-name"">Ruben</p>
    ","","","",""
"null","","html-keyboard-response","65","2.0.0","123018","3ld13jft8ob2qkp","true","20","weiblich","links","Deutsch","","","null","","","","","","<div style=""font-size:60px;"">+</div>","fixation","","",""
"null","","html-keyboard-response","66","2.0.0","124031","3ld13jft8ob2qkp","true","20","weiblich","links","Deutsch","","","null","","","","","","
      <img class=""person-img"" src=""https://raw.githubusercontent.com/saramff/face-recognition-images/refs/heads/master//men/man_65.jpg"">
      <p class=""person-name"">Andreas</p>
    ","","","",""
"null","","html-keyboard-response","67","2.0.0","125036","3ld13jft8ob2qkp","true","20","weiblich","links","Deutsch","","","null","","","","","","<div style=""font-size:60px;"">+</div>","fixation","","",""
"null","","html-keyboard-response","68","2.0.0","126047","3ld13jft8ob2qkp","true","20","weiblich","links","Deutsch","","","null","","","","","","
      <img class=""person-img"" src=""https://raw.githubusercontent.com/saramff/face-recognition-images/refs/heads/master//women/woman_91.jpg"">
      <p class=""person-name"">Maja</p>
    ","","","",""
"null","","html-keyboard-response","69","2.0.0","127065","3ld13jft8ob2qkp","true","20","weiblich","links","Deutsch","","","null","","","","","","<div style=""font-size:60px;"">+</div>","fixation","","",""
"null","","html-keyboard-response","70","2.0.0","128070","3ld13jft8ob2qkp","true","20","weiblich","links","Deutsch","","","null","","","","","","
      <img class=""person-img"" src=""https://raw.githubusercontent.com/saramff/face-recognition-images/refs/heads/master//men/man_20.jpg"">
      <p class=""person-name"">Frank</p>
    ","","","",""
"null","","html-keyboard-response","71","2.0.0","129088","3ld13jft8ob2qkp","true","20","weiblich","links","Deutsch","","","null","","","","","","<div style=""font-size:60px;"">+</div>","fixation","","",""
"null","","html-keyboard-response","72","2.0.0","130101","3ld13jft8ob2qkp","true","20","weiblich","links","Deutsch","","","null","","","","","","
      <img class=""person-img"" src=""https://raw.githubusercontent.com/saramff/face-recognition-images/refs/heads/master//men/man_9.jpg"">
      <p class=""person-name"">Oliver</p>
    ","","","",""
"null","","html-keyboard-response","73","2.0.0","131127","3ld13jft8ob2qkp","true","20","weiblich","links","Deutsch","","","null","","","","","","<div style=""font-size:60px;"">+</div>","fixation","","",""
"null","","html-keyboard-response","74","2.0.0","132136","3ld13jft8ob2qkp","true","20","weiblich","links","Deutsch","","","null","","","","","","
      <img class=""person-img"" src=""https://raw.githubusercontent.com/saramff/face-recognition-images/refs/heads/master//women/woman_72.jpg"">
      <p class=""person-name"">Frieda</p>
    ","","","",""
"null","","html-keyboard-response","75","2.0.0","133150","3ld13jft8ob2qkp","true","20","weiblich","links","Deutsch","","","null","","","","","","<div style=""font-size:60px;"">+</div>","fixation","","",""
"null","","html-keyboard-response","76","2.0.0","134155","3ld13jft8ob2qkp","true","20","weiblich","links","Deutsch","","","null","","","","","","
      <img class=""person-img"" src=""https://raw.githubusercontent.com/saramff/face-recognition-images/refs/heads/master//men/man_24.jpg"">
      <p class=""person-name"">Richard</p>
    ","","","",""
"null","","html-keyboard-response","77","2.0.0","135181","3ld13jft8ob2qkp","true","20","weiblich","links","Deutsch","","","null","","","","","","<div style=""font-size:60px;"">+</div>","fixation","","",""
"null","","html-keyboard-response","78","2.0.0","136184","3ld13jft8ob2qkp","true","20","weiblich","links","Deutsch","","","null","","","","","","
      <img class=""person-img"" src=""https://raw.githubusercontent.com/saramff/face-recognition-images/refs/heads/master//men/man_57.jpg"">
      <p class=""person-name"">Emil</p>
    ","","","",""
"null","","html-keyboard-response","79","2.0.0","137203","3ld13jft8ob2qkp","true","20","weiblich","links","Deutsch","","","null","","","","","","<div style=""font-size:60px;"">+</div>","fixation","","",""
"null","","html-keyboard-response","80","2.0.0","138216","3ld13jft8ob2qkp","true","20","weiblich","links","Deutsch","","","null","","","","","","
      <img class=""person-img"" src=""https://raw.githubusercontent.com/saramff/face-recognition-images/refs/heads/master//men/man_4.jpg"">
      <p class=""person-name"">Bernd</p>
    ","","","",""
"null","","html-keyboard-response","81","2.0.0","139249","3ld13jft8ob2qkp","true","20","weiblich","links","Deutsch","","","null","","","","","","<div style=""font-size:60px;"">+</div>","fixation","","",""
"null","","html-keyboard-response","82","2.0.0","140262","3ld13jft8ob2qkp","true","20","weiblich","links","Deutsch","","","null","","","","","","
      <img class=""person-img"" src=""https://raw.githubusercontent.com/saramff/face-recognition-images/refs/heads/master//women/woman_74.jpg"">
      <p class=""person-name"">Bianca</p>
    ","","","",""
"null","","html-keyboard-response","83","2.0.0","141280","3ld13jft8ob2qkp","true","20","weiblich","links","Deutsch","","","null","","","","","","<div style=""font-size:60px;"">+</div>","fixation","","",""
"null","","html-keyboard-response","84","2.0.0","142291","3ld13jft8ob2qkp","true","20","weiblich","links","Deutsch","","","null","","","","","","
      <img class=""person-img"" src=""https://raw.githubusercontent.com/saramff/face-recognition-images/refs/heads/master//women/woman_48.jpg"">
      <p class=""person-name"">Anouk</p>
    ","","","",""
"null","","html-keyboard-response","85","2.0.0","143318","3ld13jft8ob2qkp","true","20","weiblich","links","Deutsch","","","null","","","","","","<div style=""font-size:60px;"">+</div>","fixation","","",""
"null","","html-keyboard-response","86","2.0.0","144329","3ld13jft8ob2qkp","true","20","weiblich","links","Deutsch","","","null","","","","","","
      <img class=""person-img"" src=""https://raw.githubusercontent.com/saramff/face-recognition-images/refs/heads/master//men/man_68.jpg"">
      <p class=""person-name"">Marcel</p>
    ","","","",""
"null","","html-keyboard-response","87","2.0.0","145346","3ld13jft8ob2qkp","true","20","weiblich","links","Deutsch","","","null","","","","","","<div style=""font-size:60px;"">+</div>","fixation","","",""
"null","","html-keyboard-response","88","2.0.0","146347","3ld13jft8ob2qkp","true","20","weiblich","links","Deutsch","","","null","","","","","","
      <img class=""person-img"" src=""https://raw.githubusercontent.com/saramff/face-recognition-images/refs/heads/master//men/man_54.jpg"">
      <p class=""person-name"">Holger</p>
    ","","","",""
"null","","html-keyboard-response","89","2.0.0","147363","3ld13jft8ob2qkp","true","20","weiblich","links","Deutsch","","","null","","","","","","<div style=""font-size:60px;"">+</div>","fixation","","",""
"null","","html-keyboard-response","90","2.0.0","148374","3ld13jft8ob2qkp","true","20","weiblich","links","Deutsch","","","null","","","","","","
      <img class=""person-img"" src=""https://raw.githubusercontent.com/saramff/face-recognition-images/refs/heads/master//men/man_46.jpg"">
      <p class=""person-name"">Kai</p>
    ","","","",""
"null","","html-keyboard-response","91","2.0.0","149386","3ld13jft8ob2qkp","true","20","weiblich","links","Deutsch","","","null","","","","","","<div style=""font-size:60px;"">+</div>","fixation","","",""
"null","","html-keyboard-response","92","2.0.0","150387","3ld13jft8ob2qkp","true","20","weiblich","links","Deutsch","","","null","","","","","","
      <img class=""person-img"" src=""https://raw.githubusercontent.com/saramff/face-recognition-images/refs/heads/master//men/man_84.jpg"">
      <p class=""person-name"">Gabriel</p>
    ","","","",""
"null","","html-keyboard-response","93","2.0.0","151392","3ld13jft8ob2qkp","true","20","weiblich","links","Deutsch","","","null","","","","","","<div style=""font-size:60px;"">+</div>","fixation","","",""
"null","","html-keyboard-response","94","2.0.0","152405","3ld13jft8ob2qkp","true","20","weiblich","links","Deutsch","","","null","","","","","","
      <img class=""person-img"" src=""https://raw.githubusercontent.com/saramff/face-recognition-images/refs/heads/master//women/woman_76.jpg"">
      <p class=""person-name"">Franziska</p>
    ","","","",""
"null","","html-keyboard-response","95","2.0.0","153430","3ld13jft8ob2qkp","true","20","weiblich","links","Deutsch","","","null","","","","","","<div style=""font-size:60px;"">+</div>","fixation","","",""
"null","","html-keyboard-response","96","2.0.0","154445","3ld13jft8ob2qkp","true","20","weiblich","links","Deutsch","","","null","","","","","","
      <img class=""person-img"" src=""https://raw.githubusercontent.com/saramff/face-recognition-images/refs/heads/master//men/man_77.jpg"">
      <p class=""person-name"">Kilian</p>
    ","","","",""
"null","","html-keyboard-response","97","2.0.0","155467","3ld13jft8ob2qkp","true","20","weiblich","links","Deutsch","","","null","","","","","","<div style=""font-size:60px;"">+</div>","fixation","","",""
"null","","html-keyboard-response","98","2.0.0","156481","3ld13jft8ob2qkp","true","20","weiblich","links","Deutsch","","","null","","","","","","
      <img class=""person-img"" src=""https://raw.githubusercontent.com/saramff/face-recognition-images/refs/heads/master//men/man_72.jpg"">
      <p class=""person-name"">Paul</p>
    ","","","",""
"null","","html-keyboard-response","99","2.0.0","157500","3ld13jft8ob2qkp","true","20","weiblich","links","Deutsch","","","null","","","","","","<div style=""font-size:60px;"">+</div>","fixation","","",""
"null","","html-keyboard-response","100","2.0.0","158509","3ld13jft8ob2qkp","true","20","weiblich","links","Deutsch","","","null","","","","","","
      <img class=""person-img"" src=""https://raw.githubusercontent.com/saramff/face-recognition-images/refs/heads/master//women/woman_63.jpg"">
      <p class=""person-name"">Christina</p>
    ","","","",""
"null","","html-keyboard-response","101","2.0.0","159530","3ld13jft8ob2qkp","true","20","weiblich","links","Deutsch","","","null","","","","","","<div style=""font-size:60px;"">+</div>","fixation","","",""
"null","","html-keyboard-response","102","2.0.0","160543","3ld13jft8ob2qkp","true","20","weiblich","links","Deutsch","","","null","","","","","","
      <img class=""person-img"" src=""https://raw.githubusercontent.com/saramff/face-recognition-images/refs/heads/master//women/woman_52.jpg"">
      <p class=""person-name"">Elisabeth</p>
    ","","","",""
"null","","html-keyboard-response","103","2.0.0","161556","3ld13jft8ob2qkp","true","20","weiblich","links","Deutsch","","","null","","","","","","<div style=""font-size:60px;"">+</div>","fixation","","",""
"null","","html-keyboard-response","104","2.0.0","162566","3ld13jft8ob2qkp","true","20","weiblich","links","Deutsch","","","null","","","","","","
      <img class=""person-img"" src=""https://raw.githubusercontent.com/saramff/face-recognition-images/refs/heads/master//women/woman_27.jpg"">
      <p class=""person-name"">Pia</p>
    ","","","",""
"null","","html-keyboard-response","105","2.0.0","163587","3ld13jft8ob2qkp","true","20","weiblich","links","Deutsch","","","null","","","","","","<div style=""font-size:60px;"">+</div>","fixation","","",""
"null","","html-keyboard-response","106","2.0.0","164595","3ld13jft8ob2qkp","true","20","weiblich","links","Deutsch","","","null","","","","","","
      <img class=""person-img"" src=""https://raw.githubusercontent.com/saramff/face-recognition-images/refs/heads/master//women/woman_47.jpg"">
      <p class=""person-name"">Sarah</p>
    ","","","",""
"null","","html-keyboard-response","107","2.0.0","165626","3ld13jft8ob2qkp","true","20","weiblich","links","Deutsch","","","null","","","","","","<div style=""font-size:60px;"">+</div>","fixation","","",""
"null","","html-keyboard-response","108","2.0.0","166629","3ld13jft8ob2qkp","true","20","weiblich","links","Deutsch","","","null","","","","","","
      <img class=""person-img"" src=""https://raw.githubusercontent.com/saramff/face-recognition-images/refs/heads/master//women/woman_39.jpg"">
      <p class=""person-name"">Veronika</p>
    ","","","",""
"null","","html-keyboard-response","109","2.0.0","167644","3ld13jft8ob2qkp","true","20","weiblich","links","Deutsch","","","null","","","","","","<div style=""font-size:60px;"">+</div>","fixation","","",""
"null","","html-keyboard-response","110","2.0.0","168660","3ld13jft8ob2qkp","true","20","weiblich","links","Deutsch","","","null","","","","","","
      <img class=""person-img"" src=""https://raw.githubusercontent.com/saramff/face-recognition-images/refs/heads/master//men/man_27.jpg"">
      <p class=""person-name"">David</p>
    ","","","",""
"null","","html-keyboard-response","111","2.0.0","169675","3ld13jft8ob2qkp","true","20","weiblich","links","Deutsch","","","null","","","","","","<div style=""font-size:60px;"">+</div>","fixation","","",""
"null","","html-keyboard-response","112","2.0.0","170683","3ld13jft8ob2qkp","true","20","weiblich","links","Deutsch","","","null","","","","","","
      <img class=""person-img"" src=""https://raw.githubusercontent.com/saramff/face-recognition-images/refs/heads/master//women/woman_93.jpg"">
      <p class=""person-name"">Carina</p>
    ","","","",""
"null","","html-keyboard-response","113","2.0.0","171709","3ld13jft8ob2qkp","true","20","weiblich","links","Deutsch","","","null","","","","","","<div style=""font-size:60px;"">+</div>","fixation","","",""
"null","","html-keyboard-response","114","2.0.0","172721","3ld13jft8ob2qkp","true","20","weiblich","links","Deutsch","","","null","","","","","","
      <img class=""person-img"" src=""https://raw.githubusercontent.com/saramff/face-recognition-images/refs/heads/master//men/man_76.jpg"">
      <p class=""person-name"">Simon</p>
    ","","","",""
"null","","html-keyboard-response","115","2.0.0","173738","3ld13jft8ob2qkp","true","20","weiblich","links","Deutsch","","","null","","","","","","<div style=""font-size:60px;"">+</div>","fixation","","",""
"null","","html-keyboard-response","116","2.0.0","174748","3ld13jft8ob2qkp","true","20","weiblich","links","Deutsch","","","null","","","","","","
      <img class=""person-img"" src=""https://raw.githubusercontent.com/saramff/face-recognition-images/refs/heads/master//men/man_88.jpg"">
      <p class=""person-name"">Frederik</p>
    ","","","",""
"null","","html-keyboard-response","117","2.0.0","175773","3ld13jft8ob2qkp","true","20","weiblich","links","Deutsch","","","null","","","","","","<div style=""font-size:60px;"">+</div>","fixation","","",""
"null","","html-keyboard-response","118","2.0.0","176778","3ld13jft8ob2qkp","true","20","weiblich","links","Deutsch","","","null","","","","","","
      <img class=""person-img"" src=""https://raw.githubusercontent.com/saramff/face-recognition-images/refs/heads/master//men/man_91.jpg"">
      <p class=""person-name"">Lukas</p>
    ","","","",""
"null","","html-keyboard-response","119","2.0.0","177780","3ld13jft8ob2qkp","true","20","weiblich","links","Deutsch","","","null","","","","","","<div style=""font-size:60px;"">+</div>","fixation","","",""
"null","","html-keyboard-response","120","2.0.0","178783","3ld13jft8ob2qkp","true","20","weiblich","links","Deutsch","","","null","","","","","","
      <img class=""person-img"" src=""https://raw.githubusercontent.com/saramff/face-recognition-images/refs/heads/master//women/woman_5.jpg"">
      <p class=""person-name"">Isabel</p>
    ","","","",""
"null","","html-keyboard-response","121","2.0.0","179791","3ld13jft8ob2qkp","true","20","weiblich","links","Deutsch","","","null","","","","","","<div style=""font-size:60px;"">+</div>","fixation","","",""
"null","","html-keyboard-response","122","2.0.0","180806","3ld13jft8ob2qkp","true","20","weiblich","links","Deutsch","","","null","","","","","","
      <img class=""person-img"" src=""https://raw.githubusercontent.com/saramff/face-recognition-images/refs/heads/master//men/man_71.jpg"">
      <p class=""person-name"">Raphael</p>
    ","","","",""
"null","","html-keyboard-response","123","2.0.0","181837","3ld13jft8ob2qkp","true","20","weiblich","links","Deutsch","","","null","","","","","","<div style=""font-size:60px;"">+</div>","fixation","","",""
"null","","html-keyboard-response","124","2.0.0","182839","3ld13jft8ob2qkp","true","20","weiblich","links","Deutsch","","","null","","","","","","
      <img class=""person-img"" src=""https://raw.githubusercontent.com/saramff/face-recognition-images/refs/heads/master//men/man_80.jpg"">
      <p class=""person-name"">Julian</p>
    ","","","",""
"null","","html-keyboard-response","125","2.0.0","183860","3ld13jft8ob2qkp","true","20","weiblich","links","Deutsch","","","null","","","","","","<div style=""font-size:60px;"">+</div>","fixation","","",""
"null","","html-keyboard-response","126","2.0.0","184878","3ld13jft8ob2qkp","true","20","weiblich","links","Deutsch","","","null","","","","","","
      <img class=""person-img"" src=""https://raw.githubusercontent.com/saramff/face-recognition-images/refs/heads/master//women/woman_15.jpg"">
      <p class=""person-name"">Marta</p>
    ","","","",""
"null","","html-keyboard-response","127","2.0.0","185885","3ld13jft8ob2qkp","true","20","weiblich","links","Deutsch","","","null","","","","","","<div style=""font-size:60px;"">+</div>","fixation","","",""
"null","","html-keyboard-response","128","2.0.0","186889","3ld13jft8ob2qkp","true","20","weiblich","links","Deutsch","","","null","","","","","","
      <img class=""person-img"" src=""https://raw.githubusercontent.com/saramff/face-recognition-images/refs/heads/master//men/man_44.jpg"">
      <p class=""person-name"">Patrick</p>
    ","","","",""
"null","","html-keyboard-response","129","2.0.0","187908","3ld13jft8ob2qkp","true","20","weiblich","links","Deutsch","","","null","","","","","","<div style=""font-size:60px;"">+</div>","fixation","","",""
"null","","html-keyboard-response","130","2.0.0","188924","3ld13jft8ob2qkp","true","20","weiblich","links","Deutsch","","","null","","","","","","
      <img class=""person-img"" src=""https://raw.githubusercontent.com/saramff/face-recognition-images/refs/heads/master//women/woman_53.jpg"">
      <p class=""person-name"">Beate</p>
    ","","","",""
"null","","html-keyboard-response","131","2.0.0","189930","3ld13jft8ob2qkp","true","20","weiblich","links","Deutsch","","","null","","","","","","<div style=""font-size:60px;"">+</div>","fixation","","",""
"null","","html-keyboard-response","132","2.0.0","190941","3ld13jft8ob2qkp","true","20","weiblich","links","Deutsch","","","null","","","","","","
      <img class=""person-img"" src=""https://raw.githubusercontent.com/saramff/face-recognition-images/refs/heads/master//men/man_16.jpg"">
      <p class=""person-name"">Olaf</p>
    ","","","",""
"null","","html-keyboard-response","133","2.0.0","191967","3ld13jft8ob2qkp","true","20","weiblich","links","Deutsch","","","null","","","","","","<div style=""font-size:60px;"">+</div>","fixation","","",""
"null","","html-keyboard-response","134","2.0.0","192982","3ld13jft8ob2qkp","true","20","weiblich","links","Deutsch","","","null","","","","","","
      <img class=""person-img"" src=""https://raw.githubusercontent.com/saramff/face-recognition-images/refs/heads/master//women/woman_65.jpg"">
      <p class=""person-name"">Eva</p>
    ","","","",""
"null","","html-keyboard-response","135","2.0.0","194007","3ld13jft8ob2qkp","true","20","weiblich","links","Deutsch","","","null","","","","","","<div style=""font-size:60px;"">+</div>","fixation","","",""
"null","","html-keyboard-response","136","2.0.0","195015","3ld13jft8ob2qkp","true","20","weiblich","links","Deutsch","","","null","","","","","","
      <img class=""person-img"" src=""https://raw.githubusercontent.com/saramff/face-recognition-images/refs/heads/master//women/woman_9.jpg"">
      <p class=""person-name"">Daniela</p>
    ","","","",""
"null","","html-keyboard-response","137","2.0.0","196032","3ld13jft8ob2qkp","true","20","weiblich","links","Deutsch","","","null","","","","","","<div style=""font-size:60px;"">+</div>","fixation","","",""
"null","","html-keyboard-response","138","2.0.0","197034","3ld13jft8ob2qkp","true","20","weiblich","links","Deutsch","","","null","","","","","","
      <img class=""person-img"" src=""https://raw.githubusercontent.com/saramff/face-recognition-images/refs/heads/master//women/woman_14.jpg"">
      <p class=""person-name"">Marlene</p>
    ","","","",""
"null","","html-keyboard-response","139","2.0.0","198063","3ld13jft8ob2qkp","true","20","weiblich","links","Deutsch","","","null","","","","","","<div style=""font-size:60px;"">+</div>","fixation","","",""
"null","","html-keyboard-response","140","2.0.0","199076","3ld13jft8ob2qkp","true","20","weiblich","links","Deutsch","","","null","","","","","","
      <img class=""person-img"" src=""https://raw.githubusercontent.com/saramff/face-recognition-images/refs/heads/master//women/woman_71.jpg"">
      <p class=""person-name"">Elly</p>
    ","","","",""
"null","","html-keyboard-response","141","2.0.0","200087","3ld13jft8ob2qkp","true","20","weiblich","links","Deutsch","","","null","","","","","","<div style=""font-size:60px;"">+</div>","fixation","","",""
"null","","html-keyboard-response","142","2.0.0","201100","3ld13jft8ob2qkp","true","20","weiblich","links","Deutsch","","","null","","","","","","
      <img class=""person-img"" src=""https://raw.githubusercontent.com/saramff/face-recognition-images/refs/heads/master//women/woman_40.jpg"">
      <p class=""person-name"">Karlotta</p>
    ","","","",""
"null","","html-keyboard-response","143","2.0.0","202110","3ld13jft8ob2qkp","true","20","weiblich","links","Deutsch","","","null","","","","","","<div style=""font-size:60px;"">+</div>","fixation","","",""
"null","","html-keyboard-response","144","2.0.0","203118","3ld13jft8ob2qkp","true","20","weiblich","links","Deutsch","","","null","","","","","","
      <img class=""person-img"" src=""https://raw.githubusercontent.com/saramff/face-recognition-images/refs/heads/master//men/man_8.jpg"">
      <p class=""person-name"">Thorsten</p>
    ","","","",""
"null","","html-keyboard-response","145","2.0.0","204135","3ld13jft8ob2qkp","true","20","weiblich","links","Deutsch","","","null","","","","","","<div style=""font-size:60px;"">+</div>","fixation","","",""
"null","","html-keyboard-response","146","2.0.0","205145","3ld13jft8ob2qkp","true","20","weiblich","links","Deutsch","","","null","","","","","","
      <img class=""person-img"" src=""https://raw.githubusercontent.com/saramff/face-recognition-images/refs/heads/master//men/man_5.jpg"">
      <p class=""person-name"">Oskar</p>
    ","","","",""
"null","","html-keyboard-response","147","2.0.0","206163","3ld13jft8ob2qkp","true","20","weiblich","links","Deutsch","","","null","","","","","","<div style=""font-size:60px;"">+</div>","fixation","","",""
"null","","html-keyboard-response","148","2.0.0","207172","3ld13jft8ob2qkp","true","20","weiblich","links","Deutsch","","","null","","","","","","
      <img class=""person-img"" src=""https://raw.githubusercontent.com/saramff/face-recognition-images/refs/heads/master//women/woman_35.jpg"">
      <p class=""person-name"">Anja</p>
    ","","","",""
"null","","html-keyboard-response","149","2.0.0","208193","3ld13jft8ob2qkp","true","20","weiblich","links","Deutsch","","","null","","","","","","<div style=""font-size:60px;"">+</div>","fixation","","",""
"null","","html-keyboard-response","150","2.0.0","209201","3ld13jft8ob2qkp","true","20","weiblich","links","Deutsch","","","null","","","","","","
      <img class=""person-img"" src=""https://raw.githubusercontent.com/saramff/face-recognition-images/refs/heads/master//women/woman_66.jpg"">
      <p class=""person-name"">Paulina</p>
    ","","","",""
"null","","html-keyboard-response","151","2.0.0","210219","3ld13jft8ob2qkp","true","20","weiblich","links","Deutsch","","","null","","","","","","<div style=""font-size:60px;"">+</div>","fixation","","",""
"null","","html-keyboard-response","152","2.0.0","211226","3ld13jft8ob2qkp","true","20","weiblich","links","Deutsch","","","null","","","","","","
      <img class=""person-img"" src=""https://raw.githubusercontent.com/saramff/face-recognition-images/refs/heads/master//women/woman_77.jpg"">
      <p class=""person-name"">Hannah</p>
    ","","","",""
"null","","html-keyboard-response","153","2.0.0","212252","3ld13jft8ob2qkp","true","20","weiblich","links","Deutsch","","","null","","","","","","<div style=""font-size:60px;"">+</div>","fixation","","",""
"null","","html-keyboard-response","154","2.0.0","213266","3ld13jft8ob2qkp","true","20","weiblich","links","Deutsch","","","null","","","","","","
      <img class=""person-img"" src=""https://raw.githubusercontent.com/saramff/face-recognition-images/refs/heads/master//women/woman_54.jpg"">
      <p class=""person-name"">Ariane</p>
    ","","","",""
"null","","html-keyboard-response","155","2.0.0","214288","3ld13jft8ob2qkp","true","20","weiblich","links","Deutsch","","","null","","","","","","<div style=""font-size:60px;"">+</div>","fixation","","",""
"null","","html-keyboard-response","156","2.0.0","215293","3ld13jft8ob2qkp","true","20","weiblich","links","Deutsch","","","null","","","","","","
      <img class=""person-img"" src=""https://raw.githubusercontent.com/saramff/face-recognition-images/refs/heads/master//women/woman_37.jpg"">
      <p class=""person-name"">Theresa</p>
    ","","","",""
"null","","html-keyboard-response","157","2.0.0","216305","3ld13jft8ob2qkp","true","20","weiblich","links","Deutsch","","","null","","","","","","<div style=""font-size:60px;"">+</div>","fixation","","",""
"null","","html-keyboard-response","158","2.0.0","217321","3ld13jft8ob2qkp","true","20","weiblich","links","Deutsch","","","null","","","","","","
      <img class=""person-img"" src=""https://raw.githubusercontent.com/saramff/face-recognition-images/refs/heads/master//women/woman_81.jpg"">
      <p class=""person-name"">Livia</p>
    ","","","",""
"null","","html-keyboard-response","159","2.0.0","218341","3ld13jft8ob2qkp","true","20","weiblich","links","Deutsch","","","null","","","","","","<div style=""font-size:60px;"">+</div>","fixation","","",""
"null","","html-keyboard-response","160","2.0.0","219347","3ld13jft8ob2qkp","true","20","weiblich","links","Deutsch","","","null","","","","","","
      <img class=""person-img"" src=""https://raw.githubusercontent.com/saramff/face-recognition-images/refs/heads/master//women/woman_46.jpg"">
      <p class=""person-name"">Svenja</p>
    ","","","",""
"null","","html-keyboard-response","161","2.0.0","220376","3ld13jft8ob2qkp","true","20","weiblich","links","Deutsch","","","null","","","","","","<div style=""font-size:60px;"">+</div>","fixation","","",""
"null","","html-keyboard-response","162","2.0.0","221381","3ld13jft8ob2qkp","true","20","weiblich","links","Deutsch","","","null","","","","","","
      <img class=""person-img"" src=""https://raw.githubusercontent.com/saramff/face-recognition-images/refs/heads/master//men/man_93.jpg"">
      <p class=""person-name"">Paul</p>
    ","","","",""
"null","","html-keyboard-response","163","2.0.0","222390","3ld13jft8ob2qkp","true","20","weiblich","links","Deutsch","","","null","","","","","","<div style=""font-size:60px;"">+</div>","fixation","","",""
"null","","html-keyboard-response","164","2.0.0","223406","3ld13jft8ob2qkp","true","20","weiblich","links","Deutsch","","","null","","","","","","
      <img class=""person-img"" src=""https://raw.githubusercontent.com/saramff/face-recognition-images/refs/heads/master//men/man_19.jpg"">
      <p class=""person-name"">J&ouml;rg</p>
    ","","","",""
"null","","html-keyboard-response","165","2.0.0","224427","3ld13jft8ob2qkp","true","20","weiblich","links","Deutsch","","","null","","","","","","<div style=""font-size:60px;"">+</div>","fixation","","",""
"null","","html-keyboard-response","166","2.0.0","225434","3ld13jft8ob2qkp","true","20","weiblich","links","Deutsch","","","null","","","","","","
      <img class=""person-img"" src=""https://raw.githubusercontent.com/saramff/face-recognition-images/refs/heads/master//women/woman_29.jpg"">
      <p class=""person-name"">Celine</p>
    ","","","",""
"null","","html-keyboard-response","167","2.0.0","226458","3ld13jft8ob2qkp","true","20","weiblich","links","Deutsch","","","null","","","","","","<div style=""font-size:60px;"">+</div>","fixation","","",""
"null","","html-keyboard-response","168","2.0.0","227471","3ld13jft8ob2qkp","true","20","weiblich","links","Deutsch","","","null","","","","","","
      <img class=""person-img"" src=""https://raw.githubusercontent.com/saramff/face-recognition-images/refs/heads/master//women/woman_82.jpg"">
      <p class=""person-name"">Lucie</p>
    ","","","",""
"null","","html-keyboard-response","169","2.0.0","228491","3ld13jft8ob2qkp","true","20","weiblich","links","Deutsch","","","null","","","","","","<div style=""font-size:60px;"">+</div>","fixation","","",""
"null","","html-keyboard-response","170","2.0.0","229496","3ld13jft8ob2qkp","true","20","weiblich","links","Deutsch","","","null","","","","","","
      <img class=""person-img"" src=""https://raw.githubusercontent.com/saramff/face-recognition-images/refs/heads/master//women/woman_80.jpg"">
      <p class=""person-name"">Helena</p>
    ","","","",""
"null","","html-keyboard-response","171","2.0.0","230512","3ld13jft8ob2qkp","true","20","weiblich","links","Deutsch","","","null","","","","","","<div style=""font-size:60px;"">+</div>","fixation","","",""
"null","","html-keyboard-response","172","2.0.0","231520","3ld13jft8ob2qkp","true","20","weiblich","links","Deutsch","","","null","","","","","","
      <img class=""person-img"" src=""https://raw.githubusercontent.com/saramff/face-recognition-images/refs/heads/master//men/man_83.jpg"">
      <p class=""person-name"">Jonathan</p>
    ","","","",""
"null","","html-keyboard-response","173","2.0.0","232540","3ld13jft8ob2qkp","true","20","weiblich","links","Deutsch","","","null","","","","","","<div style=""font-size:60px;"">+</div>","fixation","","",""
"null","","html-keyboard-response","174","2.0.0","233546","3ld13jft8ob2qkp","true","20","weiblich","links","Deutsch","","","null","","","","","","
      <img class=""person-img"" src=""https://raw.githubusercontent.com/saramff/face-recognition-images/refs/heads/master//men/man_18.jpg"">
      <p class=""person-name"">Udo</p>
    ","","","",""
"null","","html-keyboard-response","175","2.0.0","234570","3ld13jft8ob2qkp","true","20","weiblich","links","Deutsch","","","null","","","","","","<div style=""font-size:60px;"">+</div>","fixation","","",""
"null","","html-keyboard-response","176","2.0.0","235580","3ld13jft8ob2qkp","true","20","weiblich","links","Deutsch","","","null","","","","","","
      <img class=""person-img"" src=""https://raw.githubusercontent.com/saramff/face-recognition-images/refs/heads/master//men/man_29.jpg"">
      <p class=""person-name"">Tristan</p>
    ","","","",""
"null","","html-keyboard-response","177","2.0.0","236594","3ld13jft8ob2qkp","true","20","weiblich","links","Deutsch","","","null","","","","","","<div style=""font-size:60px;"">+</div>","fixation","","",""
"null","","html-keyboard-response","178","2.0.0","237596","3ld13jft8ob2qkp","true","20","weiblich","links","Deutsch","","","null","","","","","","
      <img class=""person-img"" src=""https://raw.githubusercontent.com/saramff/face-recognition-images/refs/heads/master//women/woman_4.jpg"">
      <p class=""person-name"">Jasmin</p>
    ","","","",""
"null","","html-keyboard-response","179","2.0.0","238623","3ld13jft8ob2qkp","true","20","weiblich","links","Deutsch","","","null","","","","","","<div style=""font-size:60px;"">+</div>","fixation","","",""
"null","","html-keyboard-response","180","2.0.0","239631","3ld13jft8ob2qkp","true","20","weiblich","links","Deutsch","","","null","","","","","","
      <img class=""person-img"" src=""https://raw.githubusercontent.com/saramff/face-recognition-images/refs/heads/master//men/man_47.jpg"">
      <p class=""person-name"">Robin</p>
    ","","","",""
"null","","html-keyboard-response","181","2.0.0","240659","3ld13jft8ob2qkp","true","20","weiblich","links","Deutsch","","","null","","","","","","<div style=""font-size:60px;"">+</div>","fixation","","",""
"null","","html-keyboard-response","182","2.0.0","241668","3ld13jft8ob2qkp","true","20","weiblich","links","Deutsch","","","null","","","","","","
      <img class=""person-img"" src=""https://raw.githubusercontent.com/saramff/face-recognition-images/refs/heads/master//men/man_28.jpg"">
      <p class=""person-name"">Jonas</p>
    ","","","",""
"null","","html-keyboard-response","183","2.0.0","242697","3ld13jft8ob2qkp","true","20","weiblich","links","Deutsch","","","null","","","","","","<div style=""font-size:60px;"">+</div>","fixation","","",""
"null","","html-keyboard-response","184","2.0.0","243704","3ld13jft8ob2qkp","true","20","weiblich","links","Deutsch","","","null","","","","","","
      <img class=""person-img"" src=""https://raw.githubusercontent.com/saramff/face-recognition-images/refs/heads/master//men/man_70.jpg"">
      <p class=""person-name"">Ben</p>
    ","","","",""
"null","","html-keyboard-response","185","2.0.0","244726","3ld13jft8ob2qkp","true","20","weiblich","links","Deutsch","","","null","","","","","","<div style=""font-size:60px;"">+</div>","fixation","","",""
"null","","html-keyboard-response","186","2.0.0","245730","3ld13jft8ob2qkp","true","20","weiblich","links","Deutsch","","","null","","","","","","
      <img class=""person-img"" src=""https://raw.githubusercontent.com/saramff/face-recognition-images/refs/heads/master//men/man_96.jpg"">
      <p class=""person-name"">Steffen</p>
    ","","","",""
"null","","html-keyboard-response","187","2.0.0","246756","3ld13jft8ob2qkp","true","20","weiblich","links","Deutsch","","","null","","","","","","<div style=""font-size:60px;"">+</div>","fixation","","",""
"null","","html-keyboard-response","188","2.0.0","247758","3ld13jft8ob2qkp","true","20","weiblich","links","Deutsch","","","null","","","","","","
      <img class=""person-img"" src=""https://raw.githubusercontent.com/saramff/face-recognition-images/refs/heads/master//men/man_34.jpg"">
      <p class=""person-name"">Valentin</p>
    ","","","",""
"null","","html-keyboard-response","189","2.0.0","248780","3ld13jft8ob2qkp","true","20","weiblich","links","Deutsch","","","null","","","","","","<div style=""font-size:60px;"">+</div>","fixation","","",""
"null","","html-keyboard-response","190","2.0.0","249793","3ld13jft8ob2qkp","true","20","weiblich","links","Deutsch","","","null","","","","","","
      <img class=""person-img"" src=""https://raw.githubusercontent.com/saramff/face-recognition-images/refs/heads/master//men/man_32.jpg"">
      <p class=""person-name"">Theodor</p>
    ","","","",""
"null","","html-keyboard-response","191","2.0.0","250822","3ld13jft8ob2qkp","true","20","weiblich","links","Deutsch","","","null","","","","","","<div style=""font-size:60px;"">+</div>","fixation","","",""
"null","","html-keyboard-response","192","2.0.0","251835","3ld13jft8ob2qkp","true","20","weiblich","links","Deutsch","","","null","","","","","","
      <img class=""person-img"" src=""https://raw.githubusercontent.com/saramff/face-recognition-images/refs/heads/master//women/woman_73.jpg"">
      <p class=""person-name"">Nora</p>
    ","","","",""
"null","","html-keyboard-response","193","2.0.0","252862","3ld13jft8ob2qkp","true","20","weiblich","links","Deutsch","","","null","","","","","","<div style=""font-size:60px;"">+</div>","fixation","","",""
"null","","html-keyboard-response","194","2.0.0","253866","3ld13jft8ob2qkp","true","20","weiblich","links","Deutsch","","","null","","","","","","
      <img class=""person-img"" src=""https://raw.githubusercontent.com/saramff/face-recognition-images/refs/heads/master//men/man_62.jpg"">
      <p class=""person-name"">Volker</p>
    ","","","",""
"null","","html-keyboard-response","195","2.0.0","254891","3ld13jft8ob2qkp","true","20","weiblich","links","Deutsch","","","null","","","","","","<div style=""font-size:60px;"">+</div>","fixation","","",""
"null","","html-keyboard-response","196","2.0.0","255907","3ld13jft8ob2qkp","true","20","weiblich","links","Deutsch","","","null","","","","","","
      <img class=""person-img"" src=""https://raw.githubusercontent.com/saramff/face-recognition-images/refs/heads/master//women/woman_96.jpg"">
      <p class=""person-name"">Liana</p>
    ","","","",""
"null","","html-keyboard-response","197","2.0.0","256933","3ld13jft8ob2qkp","true","20","weiblich","links","Deutsch","","","null","","","","","","<div style=""font-size:60px;"">+</div>","fixation","","",""
"null","","html-keyboard-response","198","2.0.0","257943","3ld13jft8ob2qkp","true","20","weiblich","links","Deutsch","","","null","","","","","","
      <img class=""person-img"" src=""https://raw.githubusercontent.com/saramff/face-recognition-images/refs/heads/master//women/woman_59.jpg"">
      <p class=""person-name"">Valentina</p>
    ","","","",""
"null","","html-keyboard-response","199","2.0.0","258969","3ld13jft8ob2qkp","true","20","weiblich","links","Deutsch","","","null","","","","","","<div style=""font-size:60px;"">+</div>","fixation","","",""
"null","","html-keyboard-response","200","2.0.0","259980","3ld13jft8ob2qkp","true","20","weiblich","links","Deutsch","","","null","","","","","","
      <img class=""person-img"" src=""https://raw.githubusercontent.com/saramff/face-recognition-images/refs/heads/master//men/man_10.jpg"">
      <p class=""person-name"">Jens</p>
    ","","","",""
"null","","html-keyboard-response","201","2.0.0","261000","3ld13jft8ob2qkp","true","20","weiblich","links","Deutsch","","","null","","","","","","<div style=""font-size:60px;"">+</div>","fixation","","",""
"null","","html-keyboard-response","202","2.0.0","262012","3ld13jft8ob2qkp","true","20","weiblich","links","Deutsch","","","null","","","","","","
      <img class=""person-img"" src=""https://raw.githubusercontent.com/saramff/face-recognition-images/refs/heads/master//men/man_15.jpg"">
      <p class=""person-name"">Gereon</p>
    ","","","",""
"null","","html-keyboard-response","203","2.0.0","263035","3ld13jft8ob2qkp","true","20","weiblich","links","Deutsch","","","null","","","","","","<div style=""font-size:60px;"">+</div>","fixation","","",""
"null","","html-keyboard-response","204","2.0.0","264047","3ld13jft8ob2qkp","true","20","weiblich","links","Deutsch","","","null","","","","","","
      <img class=""person-img"" src=""https://raw.githubusercontent.com/saramff/face-recognition-images/refs/heads/master//men/man_74.jpg"">
      <p class=""person-name"">Benedikt</p>
    ","","","",""
"null","","html-keyboard-response","205","2.0.0","265074","3ld13jft8ob2qkp","true","20","weiblich","links","Deutsch","","","null","","","","","","<div style=""font-size:60px;"">+</div>","fixation","","",""
"null","","html-keyboard-response","206","2.0.0","266083","3ld13jft8ob2qkp","true","20","weiblich","links","Deutsch","","","null","","","","","","
      <img class=""person-img"" src=""https://raw.githubusercontent.com/saramff/face-recognition-images/refs/heads/master//women/woman_42.jpg"">
      <p class=""person-name"">Fiona</p>
    ","","","",""
"null","","html-keyboard-response","207","2.0.0","267110","3ld13jft8ob2qkp","true","20","weiblich","links","Deutsch","","","null","","","","","","<div style=""font-size:60px;"">+</div>","fixation","","",""
"null","","html-keyboard-response","208","2.0.0","268122","3ld13jft8ob2qkp","true","20","weiblich","links","Deutsch","","","null","","","","","","
      <img class=""person-img"" src=""https://raw.githubusercontent.com/saramff/face-recognition-images/refs/heads/master//men/man_2.jpg"">
      <p class=""person-name"">Ulrich</p>
    ","","","",""
"null","","html-keyboard-response","209","2.0.0","269146","3ld13jft8ob2qkp","true","20","weiblich","links","Deutsch","","","null","","","","","","<div style=""font-size:60px;"">+</div>","fixation","","",""
"null","","html-keyboard-response","210","2.0.0","270155","3ld13jft8ob2qkp","true","20","weiblich","links","Deutsch","","","null","","","","","","
      <img class=""person-img"" src=""https://raw.githubusercontent.com/saramff/face-recognition-images/refs/heads/master//men/man_73.jpg"">
      <p class=""person-name"">Dominik</p>
    ","","","",""
"null","","html-keyboard-response","211","2.0.0","271168","3ld13jft8ob2qkp","true","20","weiblich","links","Deutsch","","","null","","","","","","<div style=""font-size:60px;"">+</div>","fixation","","",""
"null","","html-keyboard-response","212","2.0.0","272177","3ld13jft8ob2qkp","true","20","weiblich","links","Deutsch","","","null","","","","","","
      <img class=""person-img"" src=""https://raw.githubusercontent.com/saramff/face-recognition-images/refs/heads/master//men/man_39.jpg"">
      <p class=""person-name"">Robert</p>
    ","","","",""
"null","","html-keyboard-response","213","2.0.0","273198","3ld13jft8ob2qkp","true","20","weiblich","links","Deutsch","","","null","","","","","","<div style=""font-size:60px;"">+</div>","fixation","","",""
"null","","html-keyboard-response","214","2.0.0","274208","3ld13jft8ob2qkp","true","20","weiblich","links","Deutsch","","","null","","","","","","
      <img class=""person-img"" src=""https://raw.githubusercontent.com/saramff/face-recognition-images/refs/heads/master//men/man_41.jpg"">
      <p class=""person-name"">Markus</p>
    ","","","",""
"null","","html-keyboard-response","215","2.0.0","275224","3ld13jft8ob2qkp","true","20","weiblich","links","Deutsch","","","null","","","","","","<div style=""font-size:60px;"">+</div>","fixation","","",""
"null","","html-keyboard-response","216","2.0.0","276236","3ld13jft8ob2qkp","true","20","weiblich","links","Deutsch","","","null","","","","","","
      <img class=""person-img"" src=""https://raw.githubusercontent.com/saramff/face-recognition-images/refs/heads/master//men/man_85.jpg"">
      <p class=""person-name"">Heiko</p>
    ","","","",""
"null","","html-keyboard-response","217","2.0.0","277246","3ld13jft8ob2qkp","true","20","weiblich","links","Deutsch","","","null","","","","","","<div style=""font-size:60px;"">+</div>","fixation","","",""
"null","","html-keyboard-response","218","2.0.0","278254","3ld13jft8ob2qkp","true","20","weiblich","links","Deutsch","","","null","","","","","","
      <img class=""person-img"" src=""https://raw.githubusercontent.com/saramff/face-recognition-images/refs/heads/master//men/man_81.jpg"">
      <p class=""person-name"">Alexander</p>
    ","","","",""
"null","","html-keyboard-response","219","2.0.0","279275","3ld13jft8ob2qkp","true","20","weiblich","links","Deutsch","","","null","","","","","","<div style=""font-size:60px;"">+</div>","fixation","","",""
"null","","html-keyboard-response","220","2.0.0","280286","3ld13jft8ob2qkp","true","20","weiblich","links","Deutsch","","","null","","","","","","
      <img class=""person-img"" src=""https://raw.githubusercontent.com/saramff/face-recognition-images/refs/heads/master//women/woman_89.jpg"">
      <p class=""person-name"">Ida</p>
    ","","","",""
"null","","html-keyboard-response","221","2.0.0","281307","3ld13jft8ob2qkp","true","20","weiblich","links","Deutsch","","","null","","","","","","<div style=""font-size:60px;"">+</div>","fixation","","",""
"null","","html-keyboard-response","222","2.0.0","282317","3ld13jft8ob2qkp","true","20","weiblich","links","Deutsch","","","null","","","","","","
      <img class=""person-img"" src=""https://raw.githubusercontent.com/saramff/face-recognition-images/refs/heads/master//men/man_7.jpg"">
      <p class=""person-name"">Ingo</p>
    ","","","",""
"null","","html-keyboard-response","223","2.0.0","283342","3ld13jft8ob2qkp","true","20","weiblich","links","Deutsch","","","null","","","","","","<div style=""font-size:60px;"">+</div>","fixation","","",""
"null","","html-keyboard-response","224","2.0.0","284351","3ld13jft8ob2qkp","true","20","weiblich","links","Deutsch","","","null","","","","","","
      <img class=""person-img"" src=""https://raw.githubusercontent.com/saramff/face-recognition-images/refs/heads/master//women/woman_75.jpg"">
      <p class=""person-name"">Henni</p>
    ","","","",""
"null","","html-keyboard-response","225","2.0.0","285367","3ld13jft8ob2qkp","true","20","weiblich","links","Deutsch","","","null","","","","","","<div style=""font-size:60px;"">+</div>","fixation","","",""
"null","","html-keyboard-response","226","2.0.0","286383","3ld13jft8ob2qkp","true","20","weiblich","links","Deutsch","","","null","","","","","","
      <img class=""person-img"" src=""https://raw.githubusercontent.com/saramff/face-recognition-images/refs/heads/master//women/woman_88.jpg"">
      <p class=""person-name"">Mathilda</p>
    ","","","",""
"null","","html-keyboard-response","227","2.0.0","287413","3ld13jft8ob2qkp","true","20","weiblich","links","Deutsch","","","null","","","","","","<div style=""font-size:60px;"">+</div>","fixation","","",""
"null","","html-keyboard-response","228","2.0.0","288427","3ld13jft8ob2qkp","true","20","weiblich","links","Deutsch","","","null","","","","","","
      <img class=""person-img"" src=""https://raw.githubusercontent.com/saramff/face-recognition-images/refs/heads/master//men/man_61.jpg"">
      <p class=""person-name"">Joel</p>
    ","","","",""
"null","","html-keyboard-response","229","2.0.0","289457","3ld13jft8ob2qkp","true","20","weiblich","links","Deutsch","","","null","","","","","","<div style=""font-size:60px;"">+</div>","fixation","","",""
"null","","html-keyboard-response","230","2.0.0","290471","3ld13jft8ob2qkp","true","20","weiblich","links","Deutsch","","","null","","","","","","
      <img class=""person-img"" src=""https://raw.githubusercontent.com/saramff/face-recognition-images/refs/heads/master//men/man_94.jpg"">
      <p class=""person-name"">Viktor</p>
    ","","","",""
"null","","html-keyboard-response","231","2.0.0","291500","3ld13jft8ob2qkp","true","20","weiblich","links","Deutsch","","","null","","","","","","<div style=""font-size:60px;"">+</div>","fixation","","",""
"null","","html-keyboard-response","232","2.0.0","292516","3ld13jft8ob2qkp","true","20","weiblich","links","Deutsch","","","null","","","","","","
      <img class=""person-img"" src=""https://raw.githubusercontent.com/saramff/face-recognition-images/refs/heads/master//women/woman_68.jpg"">
      <p class=""person-name"">Claudia</p>
    ","","","",""
"null","","html-keyboard-response","233","2.0.0","293537","3ld13jft8ob2qkp","true","20","weiblich","links","Deutsch","","","null","","","","","","<div style=""font-size:60px;"">+</div>","fixation","","",""
"null","","html-keyboard-response","234","2.0.0","294548","3ld13jft8ob2qkp","true","20","weiblich","links","Deutsch","","","null","","","","","","
      <img class=""person-img"" src=""https://raw.githubusercontent.com/saramff/face-recognition-images/refs/heads/master//women/woman_32.jpg"">
      <p class=""person-name"">Freya</p>
    ","","","",""
"null","","html-keyboard-response","235","2.0.0","295575","3ld13jft8ob2qkp","true","20","weiblich","links","Deutsch","","","null","","","","","","<div style=""font-size:60px;"">+</div>","fixation","","",""
"null","","html-keyboard-response","236","2.0.0","296589","3ld13jft8ob2qkp","true","20","weiblich","links","Deutsch","","","null","","","","","","
      <img class=""person-img"" src=""https://raw.githubusercontent.com/saramff/face-recognition-images/refs/heads/master//women/woman_2.jpg"">
      <p class=""person-name"">Sabrina</p>
    ","","","",""
"null","","html-keyboard-response","237","2.0.0","297615","3ld13jft8ob2qkp","true","20","weiblich","links","Deutsch","","","null","","","","","","<div style=""font-size:60px;"">+</div>","fixation","","",""
"null","","html-keyboard-response","238","2.0.0","298625","3ld13jft8ob2qkp","true","20","weiblich","links","Deutsch","","","null","","","","","","
      <img class=""person-img"" src=""https://raw.githubusercontent.com/saramff/face-recognition-images/refs/heads/master//women/woman_28.jpg"">
      <p class=""person-name"">Carla</p>
    ","","","",""
"null","","html-keyboard-response","239","2.0.0","299655","3ld13jft8ob2qkp","true","20","weiblich","links","Deutsch","","","null","","","","","","<div style=""font-size:60px;"">+</div>","fixation","","",""
"null","","html-keyboard-response","240","2.0.0","300666","3ld13jft8ob2qkp","true","20","weiblich","links","Deutsch","","","null","","","","","","
      <img class=""person-img"" src=""https://raw.githubusercontent.com/saramff/face-recognition-images/refs/heads/master//men/man_67.jpg"">
      <p class=""person-name"">Jakob</p>
    ","","","",""
"null","","html-keyboard-response","241","2.0.0","301693","3ld13jft8ob2qkp","true","20","weiblich","links","Deutsch","","","null","","","","","","<div style=""font-size:60px;"">+</div>","fixation","","",""
"null","","html-keyboard-response","242","2.0.0","302695","3ld13jft8ob2qkp","true","20","weiblich","links","Deutsch","","","null","","","","","","
      <img class=""person-img"" src=""https://raw.githubusercontent.com/saramff/face-recognition-images/refs/heads/master//men/man_92.jpg"">
      <p class=""person-name"">Thomas</p>
    ","","","",""
"null","","html-keyboard-response","243","2.0.0","303721","3ld13jft8ob2qkp","true","20","weiblich","links","Deutsch","","","null","","","","","","<div style=""font-size:60px;"">+</div>","fixation","","",""
"null","","html-keyboard-response","244","2.0.0","304727","3ld13jft8ob2qkp","true","20","weiblich","links","Deutsch","","","null","","","","","","
      <img class=""person-img"" src=""https://raw.githubusercontent.com/saramff/face-recognition-images/refs/heads/master//women/woman_69.jpg"">
      <p class=""person-name"">Michaela</p>
    ","","","",""
"null","","html-keyboard-response","245","2.0.0","305754","3ld13jft8ob2qkp","true","20","weiblich","links","Deutsch","","","null","","","","","","<div style=""font-size:60px;"">+</div>","fixation","","",""
"null","","html-keyboard-response","246","2.0.0","306771","3ld13jft8ob2qkp","true","20","weiblich","links","Deutsch","","","null","","","","","","
      <img class=""person-img"" src=""https://raw.githubusercontent.com/saramff/face-recognition-images/refs/heads/master//men/man_95.jpg"">
      <p class=""person-name"">Manuel</p>
    ","","","",""
"null","","html-keyboard-response","247","2.0.0","307800","3ld13jft8ob2qkp","true","20","weiblich","links","Deutsch","","","null","","","","","","<div style=""font-size:60px;"">+</div>","fixation","","",""
"null","","html-keyboard-response","248","2.0.0","308814","3ld13jft8ob2qkp","true","20","weiblich","links","Deutsch","","","null","","","","","","
      <img class=""person-img"" src=""https://raw.githubusercontent.com/saramff/face-recognition-images/refs/heads/master//women/woman_19.jpg"">
      <p class=""person-name"">Beate</p>
    ","","","",""
"null","","html-keyboard-response","249","2.0.0","309837","3ld13jft8ob2qkp","true","20","weiblich","links","Deutsch","","","null","","","","","","<div style=""font-size:60px;"">+</div>","fixation","","",""
"null","","html-keyboard-response","250","2.0.0","310848","3ld13jft8ob2qkp","true","20","weiblich","links","Deutsch","","","null","","","","","","
      <img class=""person-img"" src=""https://raw.githubusercontent.com/saramff/face-recognition-images/refs/heads/master//men/man_49.jpg"">
      <p class=""person-name"">Konstantin</p>
    ","","","",""
"null","","html-keyboard-response","251","2.0.0","311865","3ld13jft8ob2qkp","true","20","weiblich","links","Deutsch","","","null","","","","","","<div style=""font-size:60px;"">+</div>","fixation","","",""
"null","","html-keyboard-response","252","2.0.0","312871","3ld13jft8ob2qkp","true","20","weiblich","links","Deutsch","","","null","","","","","","
      <img class=""person-img"" src=""https://raw.githubusercontent.com/saramff/face-recognition-images/refs/heads/master//men/man_33.jpg"">
      <p class=""person-name"">Michael</p>
    ","","","",""
"null","","html-keyboard-response","253","2.0.0","313892","3ld13jft8ob2qkp","true","20","weiblich","links","Deutsch","","","null","","","","","","<div style=""font-size:60px;"">+</div>","fixation","","",""
"null","","html-keyboard-response","254","2.0.0","314904","3ld13jft8ob2qkp","true","20","weiblich","links","Deutsch","","","null","","","","","","
      <img class=""person-img"" src=""https://raw.githubusercontent.com/saramff/face-recognition-images/refs/heads/master//men/man_38.jpg"">
      <p class=""person-name"">Karl</p>
    ","","","",""
"null","","html-keyboard-response","255","2.0.0","315912","3ld13jft8ob2qkp","true","20","weiblich","links","Deutsch","","","null","","","","","","<div style=""font-size:60px;"">+</div>","fixation","","",""
"null","","html-keyboard-response","256","2.0.0","316923","3ld13jft8ob2qkp","true","20","weiblich","links","Deutsch","","","null","","","","","","
      <img class=""person-img"" src=""https://raw.githubusercontent.com/saramff/face-recognition-images/refs/heads/master//women/woman_20.jpg"">
      <p class=""person-name"">Julia</p>
    ","","","",""
"null","","html-keyboard-response","257","2.0.0","317941","3ld13jft8ob2qkp","true","20","weiblich","links","Deutsch","","","null","","","","","","<div style=""font-size:60px;"">+</div>","fixation","","",""
"null","","html-keyboard-response","258","2.0.0","318957","3ld13jft8ob2qkp","true","20","weiblich","links","Deutsch","","","null","","","","","","
      <img class=""person-img"" src=""https://raw.githubusercontent.com/saramff/face-recognition-images/refs/heads/master//men/man_82.jpg"">
      <p class=""person-name"">Leonard</p>
    ","","","",""
"null","","html-keyboard-response","259","2.0.0","319975","3ld13jft8ob2qkp","true","20","weiblich","links","Deutsch","","","null","","","","","","<div style=""font-size:60px;"">+</div>","fixation","","",""
"null","","html-keyboard-response","260","2.0.0","320984","3ld13jft8ob2qkp","true","20","weiblich","links","Deutsch","","","null","","","","","","
      <img class=""person-img"" src=""https://raw.githubusercontent.com/saramff/face-recognition-images/refs/heads/master//women/woman_8.jpg"">
      <p class=""person-name"">Leila</p>
    ","","","",""
"null","","html-keyboard-response","261","2.0.0","322007","3ld13jft8ob2qkp","true","20","weiblich","links","Deutsch","","","null","","","","","","<div style=""font-size:60px;"">+</div>","fixation","","",""
"null","","html-keyboard-response","262","2.0.0","323021","3ld13jft8ob2qkp","true","20","weiblich","links","Deutsch","","","null","","","","","","
      <img class=""person-img"" src=""https://raw.githubusercontent.com/saramff/face-recognition-images/refs/heads/master//women/woman_87.jpg"">
      <p class=""person-name"">Laura</p>
    ","","","",""
"null","","html-keyboard-response","263","2.0.0","324047","3ld13jft8ob2qkp","true","20","weiblich","links","Deutsch","","","null","","","","","","<div style=""font-size:60px;"">+</div>","fixation","","",""
"null","","html-keyboard-response","264","2.0.0","325060","3ld13jft8ob2qkp","true","20","weiblich","links","Deutsch","","","null","","","","","","
      <img class=""person-img"" src=""https://raw.githubusercontent.com/saramff/face-recognition-images/refs/heads/master//women/woman_61.jpg"">
      <p class=""person-name"">Greta</p>
    ","","","",""
"null","","html-keyboard-response","265","2.0.0","326085","3ld13jft8ob2qkp","true","20","weiblich","links","Deutsch","","","null","","","","","","<div style=""font-size:60px;"">+</div>","fixation","","",""
"null","","html-keyboard-response","266","2.0.0","327097","3ld13jft8ob2qkp","true","20","weiblich","links","Deutsch","","","null","","","","","","
      <img class=""person-img"" src=""https://raw.githubusercontent.com/saramff/face-recognition-images/refs/heads/master//men/man_14.jpg"">
      <p class=""person-name"">Max</p>
    ","","","",""
"null","","html-keyboard-response","267","2.0.0","328121","3ld13jft8ob2qkp","true","20","weiblich","links","Deutsch","","","null","","","","","","<div style=""font-size:60px;"">+</div>","fixation","","",""
"null","","html-keyboard-response","268","2.0.0","329130","3ld13jft8ob2qkp","true","20","weiblich","links","Deutsch","","","null","","","","","","
      <img class=""person-img"" src=""https://raw.githubusercontent.com/saramff/face-recognition-images/refs/heads/master//women/woman_43.jpg"">
      <p class=""person-name"">Sophia</p>
    ","","","",""
"null","","html-keyboard-response","269","2.0.0","330155","3ld13jft8ob2qkp","true","20","weiblich","links","Deutsch","","","null","","","","","","<div style=""font-size:60px;"">+</div>","fixation","","",""
"null","","html-keyboard-response","270","2.0.0","331166","3ld13jft8ob2qkp","true","20","weiblich","links","Deutsch","","","null","","","","","","
      <img class=""person-img"" src=""https://raw.githubusercontent.com/saramff/face-recognition-images/refs/heads/master//men/man_1.jpg"">
      <p class=""person-name"">Albert</p>
    ","","","",""
"null","","html-keyboard-response","271","2.0.0","332190","3ld13jft8ob2qkp","true","20","weiblich","links","Deutsch","","","null","","","","","","<div style=""font-size:60px;"">+</div>","fixation","","",""
"null","","html-keyboard-response","272","2.0.0","333203","3ld13jft8ob2qkp","true","20","weiblich","links","Deutsch","","","null","","","","","","
      <img class=""person-img"" src=""https://raw.githubusercontent.com/saramff/face-recognition-images/refs/heads/master//women/woman_50.jpg"">
      <p class=""person-name"">Marla</p>
    ","","","",""
"null","","html-keyboard-response","273","2.0.0","334225","3ld13jft8ob2qkp","true","20","weiblich","links","Deutsch","","","null","","","","","","<div style=""font-size:60px;"">+</div>","fixation","","",""
"null","","html-keyboard-response","274","2.0.0","335239","3ld13jft8ob2qkp","true","20","weiblich","links","Deutsch","","","null","","","","","","
      <img class=""person-img"" src=""https://raw.githubusercontent.com/saramff/face-recognition-images/refs/heads/master//women/woman_90.jpg"">
      <p class=""person-name"">Annie</p>
    ","","","",""
"null","","html-keyboard-response","275","2.0.0","336261","3ld13jft8ob2qkp","true","20","weiblich","links","Deutsch","","","null","","","","","","<div style=""font-size:60px;"">+</div>","fixation","","",""
"null","","html-keyboard-response","276","2.0.0","337267","3ld13jft8ob2qkp","true","20","weiblich","links","Deutsch","","","null","","","","","","
      <img class=""person-img"" src=""https://raw.githubusercontent.com/saramff/face-recognition-images/refs/heads/master//women/woman_13.jpg"">
      <p class=""person-name"">Viola</p>
    ","","","",""
"null","","html-keyboard-response","277","2.0.0","338287","3ld13jft8ob2qkp","true","20","weiblich","links","Deutsch","","","null","","","","","","<div style=""font-size:60px;"">+</div>","fixation","","",""
"null","","html-keyboard-response","278","2.0.0","339293","3ld13jft8ob2qkp","true","20","weiblich","links","Deutsch","","","null","","","","","","
      <img class=""person-img"" src=""https://raw.githubusercontent.com/saramff/face-recognition-images/refs/heads/master//women/woman_34.jpg"">
      <p class=""person-name"">Kerstin</p>
    ","","","",""
"null","","html-keyboard-response","279","2.0.0","340316","3ld13jft8ob2qkp","true","20","weiblich","links","Deutsch","","","null","","","","","","<div style=""font-size:60px;"">+</div>","fixation","","",""
"null","","html-keyboard-response","280","2.0.0","341322","3ld13jft8ob2qkp","true","20","weiblich","links","Deutsch","","","null","","","","","","
      <img class=""person-img"" src=""https://raw.githubusercontent.com/saramff/face-recognition-images/refs/heads/master//women/woman_31.jpg"">
      <p class=""person-name"">Ella</p>
    ","","","",""
"null","","html-keyboard-response","281","2.0.0","342344","3ld13jft8ob2qkp","true","20","weiblich","links","Deutsch","","","null","","","","","","<div style=""font-size:60px;"">+</div>","fixation","","",""
"null","","html-keyboard-response","282","2.0.0","343352","3ld13jft8ob2qkp","true","20","weiblich","links","Deutsch","","","null","","","","","","
      <img class=""person-img"" src=""https://raw.githubusercontent.com/saramff/face-recognition-images/refs/heads/master//men/man_69.jpg"">
      <p class=""person-name"">Sven</p>
    ","","","",""
"null","","html-keyboard-response","283","2.0.0","344366","3ld13jft8ob2qkp","true","20","weiblich","links","Deutsch","","","null","","","","","","<div style=""font-size:60px;"">+</div>","fixation","","",""
"null","","html-keyboard-response","284","2.0.0","345374","3ld13jft8ob2qkp","true","20","weiblich","links","Deutsch","","","null","","","","","","
      <img class=""person-img"" src=""https://raw.githubusercontent.com/saramff/face-recognition-images/refs/heads/master//women/woman_84.jpg"">
      <p class=""person-name"">Antonia</p>
    ","","","",""
"null","","html-keyboard-response","285","2.0.0","346397","3ld13jft8ob2qkp","true","20","weiblich","links","Deutsch","","","null","","","","","","<div style=""font-size:60px;"">+</div>","fixation","","",""
"null","","html-keyboard-response","286","2.0.0","347405","3ld13jft8ob2qkp","true","20","weiblich","links","Deutsch","","","null","","","","","","
      <img class=""person-img"" src=""https://raw.githubusercontent.com/saramff/face-recognition-images/refs/heads/master//women/woman_36.jpg"">
      <p class=""person-name"">Verena</p>
    ","","","",""
"null","","html-keyboard-response","287","2.0.0","348422","3ld13jft8ob2qkp","true","20","weiblich","links","Deutsch","","","null","","","","","","<div style=""font-size:60px;"">+</div>","fixation","","",""
"null","","html-keyboard-response","288","2.0.0","349426","3ld13jft8ob2qkp","true","20","weiblich","links","Deutsch","","","null","","","","","","
      <img class=""person-img"" src=""https://raw.githubusercontent.com/saramff/face-recognition-images/refs/heads/master//men/man_12.jpg"">
      <p class=""person-name"">Achim</p>
    ","","","",""
"null","","html-keyboard-response","289","2.0.0","350451","3ld13jft8ob2qkp","true","20","weiblich","links","Deutsch","","","null","","","","","","<div style=""font-size:60px;"">+</div>","fixation","","",""
"null","","html-keyboard-response","290","2.0.0","351461","3ld13jft8ob2qkp","true","20","weiblich","links","Deutsch","","","null","","","","","","
      <img class=""person-img"" src=""https://raw.githubusercontent.com/saramff/face-recognition-images/refs/heads/master//women/woman_17.jpg"">
      <p class=""person-name"">Nicole</p>
    ","","","",""
"null","","html-keyboard-response","291","2.0.0","352473","3ld13jft8ob2qkp","true","20","weiblich","links","Deutsch","","","null","","","","","","<div style=""font-size:60px;"">+</div>","fixation","","",""
"null","","html-keyboard-response","292","2.0.0","353481","3ld13jft8ob2qkp","true","20","weiblich","links","Deutsch","","","null","","","","","","
      <img class=""person-img"" src=""https://raw.githubusercontent.com/saramff/face-recognition-images/refs/heads/master//women/woman_7.jpg"">
      <p class=""person-name"">Louisa</p>
    ","","","",""
"null","","html-keyboard-response","293","2.0.0","354510","3ld13jft8ob2qkp","true","20","weiblich","links","Deutsch","","","null","","","","","","<div style=""font-size:60px;"">+</div>","fixation","","",""
"null","","html-keyboard-response","294","2.0.0","355522","3ld13jft8ob2qkp","true","20","weiblich","links","Deutsch","","","null","","","","","","
      <img class=""person-img"" src=""https://raw.githubusercontent.com/saramff/face-recognition-images/refs/heads/master//women/woman_60.jpg"">
      <p class=""person-name"">Katharina</p>
    ","","","",""
"null","","html-keyboard-response","295","2.0.0","356541","3ld13jft8ob2qkp","true","20","weiblich","links","Deutsch","","","null","","","","","","<div style=""font-size:60px;"">+</div>","fixation","","",""
"null","","html-keyboard-response","296","2.0.0","357551","3ld13jft8ob2qkp","true","20","weiblich","links","Deutsch","","","null","","","","","","
      <img class=""person-img"" src=""https://raw.githubusercontent.com/saramff/face-recognition-images/refs/heads/master//women/woman_3.jpg"">
      <p class=""person-name"">Rosalie</p>
    ","","","",""
"null","","html-keyboard-response","297","2.0.0","358565","3ld13jft8ob2qkp","true","20","weiblich","links","Deutsch","","","null","","","","","","<div style=""font-size:60px;"">+</div>","fixation","","",""
"null","","html-keyboard-response","298","2.0.0","359573","3ld13jft8ob2qkp","true","20","weiblich","links","Deutsch","","","null","","","","","","
      <img class=""person-img"" src=""https://raw.githubusercontent.com/saramff/face-recognition-images/refs/heads/master//women/woman_6.jpg"">
      <p class=""person-name"">Annika</p>
    ","","","",""
"null","","html-keyboard-response","299","2.0.0","360600","3ld13jft8ob2qkp","true","20","weiblich","links","Deutsch","","","null","","","","","","<div style=""font-size:60px;"">+</div>","fixation","","",""
"null","","html-keyboard-response","300","2.0.0","361606","3ld13jft8ob2qkp","true","20","weiblich","links","Deutsch","","","null","","","","","","
      <img class=""person-img"" src=""https://raw.githubusercontent.com/saramff/face-recognition-images/refs/heads/master//men/man_55.jpg"">
      <p class=""person-name"">Ren&eacute;</p>
    ","","","",""
"null","","html-keyboard-response","301","2.0.0","362619","3ld13jft8ob2qkp","true","20","weiblich","links","Deutsch","","","null","","","","","","<div style=""font-size:60px;"">+</div>","fixation","","",""
"null","","html-keyboard-response","302","2.0.0","363636","3ld13jft8ob2qkp","true","20","weiblich","links","Deutsch","","","null","","","","","","
      <img class=""person-img"" src=""https://raw.githubusercontent.com/saramff/face-recognition-images/refs/heads/master//women/woman_18.jpg"">
      <p class=""person-name"">Lena</p>
    ","","","",""
"null","","html-keyboard-response","303","2.0.0","364644","3ld13jft8ob2qkp","true","20","weiblich","links","Deutsch","","","null","","","","","","<div style=""font-size:60px;"">+</div>","fixation","","",""
"null","","html-keyboard-response","304","2.0.0","365658","3ld13jft8ob2qkp","true","20","weiblich","links","Deutsch","","","null","","","","","","
      <img class=""person-img"" src=""https://raw.githubusercontent.com/saramff/face-recognition-images/refs/heads/master//men/man_31.jpg"">
      <p class=""person-name"">Tim</p>
    ","","","",""
"null","","html-keyboard-response","305","2.0.0","366671","3ld13jft8ob2qkp","true","20","weiblich","links","Deutsch","","","null","","","","","","<div style=""font-size:60px;"">+</div>","fixation","","",""
"null","","html-keyboard-response","306","2.0.0","367685","3ld13jft8ob2qkp","true","20","weiblich","links","Deutsch","","","null","","","","","","
      <img class=""person-img"" src=""https://raw.githubusercontent.com/saramff/face-recognition-images/refs/heads/master//men/man_78.jpg"">
      <p class=""person-name"">Axel</p>
    ","","","",""
"null","","html-keyboard-response","307","2.0.0","368702","3ld13jft8ob2qkp","true","20","weiblich","links","Deutsch","","","null","","","","","","<div style=""font-size:60px;"">+</div>","fixation","","",""
"null","","html-keyboard-response","308","2.0.0","369706","3ld13jft8ob2qkp","true","20","weiblich","links","Deutsch","","","null","","","","","","
      <img class=""person-img"" src=""https://raw.githubusercontent.com/saramff/face-recognition-images/refs/heads/master//women/woman_45.jpg"">
      <p class=""person-name"">Viktoria</p>
    ","","","",""
"null","","html-keyboard-response","309","2.0.0","370717","3ld13jft8ob2qkp","true","20","weiblich","links","Deutsch","","","null","","","","","","<div style=""font-size:60px;"">+</div>","fixation","","",""
"null","","html-keyboard-response","310","2.0.0","371722","3ld13jft8ob2qkp","true","20","weiblich","links","Deutsch","","","null","","","","","","
      <img class=""person-img"" src=""https://raw.githubusercontent.com/saramff/face-recognition-images/refs/heads/master//women/woman_22.jpg"">
      <p class=""person-name"">Fabienne</p>
    ","","","",""
"null","","html-keyboard-response","311","2.0.0","372739","3ld13jft8ob2qkp","true","20","weiblich","links","Deutsch","","","null","","","","","","<div style=""font-size:60px;"">+</div>","fixation","","",""
"null","","html-keyboard-response","312","2.0.0","373746","3ld13jft8ob2qkp","true","20","weiblich","links","Deutsch","","","null","","","","","","
      <img class=""person-img"" src=""https://raw.githubusercontent.com/saramff/face-recognition-images/refs/heads/master//women/woman_94.jpg"">
      <p class=""person-name"">Malou</p>
    ","","","",""
"null","","html-keyboard-response","313","2.0.0","374771","3ld13jft8ob2qkp","true","20","weiblich","links","Deutsch","","","null","","","","","","<div style=""font-size:60px;"">+</div>","fixation","","",""
"null","","html-keyboard-response","314","2.0.0","375774","3ld13jft8ob2qkp","true","20","weiblich","links","Deutsch","","","null","","","","","","
      <img class=""person-img"" src=""https://raw.githubusercontent.com/saramff/face-recognition-images/refs/heads/master//men/man_30.jpg"">
      <p class=""person-name"">Peter</p>
    ","","","",""
"null","","html-keyboard-response","315","2.0.0","376791","3ld13jft8ob2qkp","true","20","weiblich","links","Deutsch","","","null","","","","","","<div style=""font-size:60px;"">+</div>","fixation","","",""
"null","","html-keyboard-response","316","2.0.0","377802","3ld13jft8ob2qkp","true","20","weiblich","links","Deutsch","","","null","","","","","","
      <img class=""person-img"" src=""https://raw.githubusercontent.com/saramff/face-recognition-images/refs/heads/master//women/woman_57.jpg"">
      <p class=""person-name"">Finja</p>
    ","","","",""
"null","","html-keyboard-response","317","2.0.0","378819","3ld13jft8ob2qkp","true","20","weiblich","links","Deutsch","","","null","","","","","","<div style=""font-size:60px;"">+</div>","fixation","","",""
"null","","html-keyboard-response","318","2.0.0","379830","3ld13jft8ob2qkp","true","20","weiblich","links","Deutsch","","","null","","","","","","
      <img class=""person-img"" src=""https://raw.githubusercontent.com/saramff/face-recognition-images/refs/heads/master//men/man_66.jpg"">
      <p class=""person-name"">Eugen</p>
    ","","","",""
"null","","html-keyboard-response","319","2.0.0","380851","3ld13jft8ob2qkp","true","20","weiblich","links","Deutsch","","","null","","","","","","<div style=""font-size:60px;"">+</div>","fixation","","",""
"null","","html-keyboard-response","320","2.0.0","381857","3ld13jft8ob2qkp","true","20","weiblich","links","Deutsch","","","null","","","","","","
      <img class=""person-img"" src=""https://raw.githubusercontent.com/saramff/face-recognition-images/refs/heads/master//men/man_63.jpg"">
      <p class=""person-name"">Artur</p>
    ","","","",""
"null","","html-keyboard-response","321","2.0.0","382868","3ld13jft8ob2qkp","true","20","weiblich","links","Deutsch","","","null","","","","","","<div style=""font-size:60px;"">+</div>","fixation","","",""
"null","","html-keyboard-response","322","2.0.0","383878","3ld13jft8ob2qkp","true","20","weiblich","links","Deutsch","","","null","","","","","","
      <img class=""person-img"" src=""https://raw.githubusercontent.com/saramff/face-recognition-images/refs/heads/master//men/man_35.jpg"">
      <p class=""person-name"">Bj&ouml;rn</p>
    ","","","",""
"null","","html-keyboard-response","323","2.0.0","384887","3ld13jft8ob2qkp","true","20","weiblich","links","Deutsch","","","null","","","","","","<div style=""font-size:60px;"">+</div>","fixation","","",""
"null","","html-keyboard-response","324","2.0.0","385898","3ld13jft8ob2qkp","true","20","weiblich","links","Deutsch","","","null","","","","","","
      <img class=""person-img"" src=""https://raw.githubusercontent.com/saramff/face-recognition-images/refs/heads/master//women/woman_83.jpg"">
      <p class=""person-name"">Olivia</p>
    ","","","",""
"null","","html-keyboard-response","325","2.0.0","386913","3ld13jft8ob2qkp","true","20","weiblich","links","Deutsch","","","null","","","","","","<div style=""font-size:60px;"">+</div>","fixation","","",""
"null","","html-keyboard-response","326","2.0.0","387918","3ld13jft8ob2qkp","true","20","weiblich","links","Deutsch","","","null","","","","","","
      <img class=""person-img"" src=""https://raw.githubusercontent.com/saramff/face-recognition-images/refs/heads/master//women/woman_11.jpg"">
      <p class=""person-name"">Tabea</p>
    ","","","",""
"null","","html-keyboard-response","327","2.0.0","388941","3ld13jft8ob2qkp","true","20","weiblich","links","Deutsch","","","null","","","","","","<div style=""font-size:60px;"">+</div>","fixation","","",""
"null","","html-keyboard-response","328","2.0.0","389954","3ld13jft8ob2qkp","true","20","weiblich","links","Deutsch","","","null","","","","","","
      <img class=""person-img"" src=""https://raw.githubusercontent.com/saramff/face-recognition-images/refs/heads/master//women/woman_64.jpg"">
      <p class=""person-name"">Josephine</p>
    ","","","",""
"null","","html-keyboard-response","329","2.0.0","390973","3ld13jft8ob2qkp","true","20","weiblich","links","Deutsch","","","null","","","","","","<div style=""font-size:60px;"">+</div>","fixation","","",""
"null","","html-keyboard-response","330","2.0.0","391982","3ld13jft8ob2qkp","true","20","weiblich","links","Deutsch","","","null","","","","","","
      <img class=""person-img"" src=""https://raw.githubusercontent.com/saramff/face-recognition-images/refs/heads/master//men/man_50.jpg"">
      <p class=""person-name"">Anton</p>
    ","","","",""
"null","","html-keyboard-response","331","2.0.0","392995","3ld13jft8ob2qkp","true","20","weiblich","links","Deutsch","","","null","","","","","","<div style=""font-size:60px;"">+</div>","fixation","","",""
"null","","html-keyboard-response","332","2.0.0","394003","3ld13jft8ob2qkp","true","20","weiblich","links","Deutsch","","","null","","","","","","
      <img class=""person-img"" src=""https://raw.githubusercontent.com/saramff/face-recognition-images/refs/heads/master//women/woman_12.jpg"">
      <p class=""person-name"">Lea</p>
    ","","","",""
"null","","html-keyboard-response","333","2.0.0","395014","3ld13jft8ob2qkp","true","20","weiblich","links","Deutsch","","","null","","","","","","<div style=""font-size:60px;"">+</div>","fixation","","",""
"null","","html-keyboard-response","334","2.0.0","396020","3ld13jft8ob2qkp","true","20","weiblich","links","Deutsch","","","null","","","","","","
      <img class=""person-img"" src=""https://raw.githubusercontent.com/saramff/face-recognition-images/refs/heads/master//men/man_40.jpg"">
      <p class=""person-name"">Clemens</p>
    ","","","",""
"null","","html-keyboard-response","335","2.0.0","397025","3ld13jft8ob2qkp","true","20","weiblich","links","Deutsch","","","null","","","","","","<div style=""font-size:60px;"">+</div>","fixation","","",""
"null","","html-keyboard-response","336","2.0.0","398043","3ld13jft8ob2qkp","true","20","weiblich","links","Deutsch","","","null","","","","","","
      <img class=""person-img"" src=""https://raw.githubusercontent.com/saramff/face-recognition-images/refs/heads/master//men/man_45.jpg"">
      <p class=""person-name"">Hendrik</p>
    ","","","",""
"null","","html-keyboard-response","337","2.0.0","399058","3ld13jft8ob2qkp","true","20","weiblich","links","Deutsch","","","null","","","","","","<div style=""font-size:60px;"">+</div>","fixation","","",""
"null","","html-keyboard-response","338","2.0.0","400071","3ld13jft8ob2qkp","true","20","weiblich","links","Deutsch","","","null","","","","","","
      <img class=""person-img"" src=""https://raw.githubusercontent.com/saramff/face-recognition-images/refs/heads/master//men/man_59.jpg"">
      <p class=""person-name"">Elias</p>
    ","","","",""
"null","","html-keyboard-response","339","2.0.0","401096","3ld13jft8ob2qkp","true","20","weiblich","links","Deutsch","","","null","","","","","","<div style=""font-size:60px;"">+</div>","fixation","","",""
"null","","html-keyboard-response","340","2.0.0","402102","3ld13jft8ob2qkp","true","20","weiblich","links","Deutsch","","","null","","","","","","
      <img class=""person-img"" src=""https://raw.githubusercontent.com/saramff/face-recognition-images/refs/heads/master//women/woman_24.jpg"">
      <p class=""person-name"">Frauke</p>
    ","","","",""
"null","","html-keyboard-response","341","2.0.0","403129","3ld13jft8ob2qkp","true","20","weiblich","links","Deutsch","","","null","","","","","","<div style=""font-size:60px;"">+</div>","fixation","","",""
"null","","html-keyboard-response","342","2.0.0","404146","3ld13jft8ob2qkp","true","20","weiblich","links","Deutsch","","","null","","","","","","
      <img class=""person-img"" src=""https://raw.githubusercontent.com/saramff/face-recognition-images/refs/heads/master//women/woman_16.jpg"">
      <p class=""person-name"">Selma</p>
    ","","","",""
"null","","html-keyboard-response","343","2.0.0","405173","3ld13jft8ob2qkp","true","20","weiblich","links","Deutsch","","","null","","","","","","<div style=""font-size:60px;"">+</div>","fixation","","",""
"null","","html-keyboard-response","344","2.0.0","406177","3ld13jft8ob2qkp","true","20","weiblich","links","Deutsch","","","null","","","","","","
      <img class=""person-img"" src=""https://raw.githubusercontent.com/saramff/face-recognition-images/refs/heads/master//men/man_79.jpg"">
      <p class=""person-name"">Matthias</p>
    ","","","",""
"null","","html-keyboard-response","345","2.0.0","407195","3ld13jft8ob2qkp","true","20","weiblich","links","Deutsch","","","null","","","","","","<div style=""font-size:60px;"">+</div>","fixation","","",""
"null","","html-keyboard-response","346","2.0.0","408197","3ld13jft8ob2qkp","true","20","weiblich","links","Deutsch","","","null","","","","","","
      <img class=""person-img"" src=""https://raw.githubusercontent.com/saramff/face-recognition-images/refs/heads/master//women/woman_1.jpg"">
      <p class=""person-name"">Lisa</p>
    ","","","",""
"null","","html-keyboard-response","347","2.0.0","409226","3ld13jft8ob2qkp","true","20","weiblich","links","Deutsch","","","null","","","","","","<div style=""font-size:60px;"">+</div>","fixation","","",""
"null","","html-keyboard-response","348","2.0.0","410243","3ld13jft8ob2qkp","true","20","weiblich","links","Deutsch","","","null","","","","","","
      <img class=""person-img"" src=""https://raw.githubusercontent.com/saramff/face-recognition-images/refs/heads/master//men/man_3.jpg"">
      <p class=""person-name"">Bruno</p>
    ","","","",""
"null","","html-keyboard-response","349","2.0.0","411261","3ld13jft8ob2qkp","true","20","weiblich","links","Deutsch","","","null","","","","","","<div style=""font-size:60px;"">+</div>","fixation","","",""
"null","","html-keyboard-response","350","2.0.0","412270","3ld13jft8ob2qkp","true","20","weiblich","links","Deutsch","","","null","","","","","","
      <img class=""person-img"" src=""https://raw.githubusercontent.com/saramff/face-recognition-images/refs/heads/master//men/man_87.jpg"">
      <p class=""person-name"">Leon</p>
    ","","","",""
"null","","html-keyboard-response","351","2.0.0","413291","3ld13jft8ob2qkp","true","20","weiblich","links","Deutsch","","","null","","","","","","<div style=""font-size:60px;"">+</div>","fixation","","",""
"null","","html-keyboard-response","352","2.0.0","414305","3ld13jft8ob2qkp","true","20","weiblich","links","Deutsch","","","null","","","","","","
      <img class=""person-img"" src=""https://raw.githubusercontent.com/saramff/face-recognition-images/refs/heads/master//women/woman_92.jpg"">
      <p class=""person-name"">Neele</p>
    ","","","",""
"null","","html-keyboard-response","353","2.0.0","415324","3ld13jft8ob2qkp","true","20","weiblich","links","Deutsch","","","null","","","","","","<div style=""font-size:60px;"">+</div>","fixation","","",""
"null","","html-keyboard-response","354","2.0.0","416336","3ld13jft8ob2qkp","true","20","weiblich","links","Deutsch","","","null","","","","","","
      <img class=""person-img"" src=""https://raw.githubusercontent.com/saramff/face-recognition-images/refs/heads/master//women/woman_86.jpg"">
      <p class=""person-name"">Ayla</p>
    ","","","",""
"null","","html-keyboard-response","355","2.0.0","417355","3ld13jft8ob2qkp","true","20","weiblich","links","Deutsch","","","null","","","","","","<div style=""font-size:60px;"">+</div>","fixation","","",""
"null","","html-keyboard-response","356","2.0.0","418365","3ld13jft8ob2qkp","true","20","weiblich","links","Deutsch","","","null","","","","","","
      <img class=""person-img"" src=""https://raw.githubusercontent.com/saramff/face-recognition-images/refs/heads/master//men/man_21.jpg"">
      <p class=""person-name"">Philipp</p>
    ","","","",""
"null","","html-keyboard-response","357","2.0.0","419383","3ld13jft8ob2qkp","true","20","weiblich","links","Deutsch","","","null","","","","","","<div style=""font-size:60px;"">+</div>","fixation","","",""
"null","","html-keyboard-response","358","2.0.0","420385","3ld13jft8ob2qkp","true","20","weiblich","links","Deutsch","","","null","","","","","","
      <img class=""person-img"" src=""https://raw.githubusercontent.com/saramff/face-recognition-images/refs/heads/master//women/woman_79.jpg"">
      <p class=""person-name"">Annalena</p>
    ","","","",""
"null","","html-keyboard-response","359","2.0.0","421391","3ld13jft8ob2qkp","true","20","weiblich","links","Deutsch","","","null","","","","","","<div style=""font-size:60px;"">+</div>","fixation","","",""
"null","","html-keyboard-response","360","2.0.0","422408","3ld13jft8ob2qkp","true","20","weiblich","links","Deutsch","","","null","","","","","","
      <img class=""person-img"" src=""https://raw.githubusercontent.com/saramff/face-recognition-images/refs/heads/master//men/man_90.jpg"">
      <p class=""person-name"">Florian</p>
    ","","","",""
