"rt","url","trial_type","trial_index","plugin_version","time_elapsed","subject","fullscreen","age","gender","handedness","language","success","type","response","question_order","timeout","failed_images","failed_audio","failed_video","stimulus","task","correct_response","correct","correct_response_meaning"
"12064","consentA2.html","external-html","0","2.0.0","12086","q4f85mgtb1bqbh1","true","23","weiblich","rechts","Deutsch","","","","","","","","","","","","",""
"2412","","fullscreen","1","2.0.0","15516","q4f85mgtb1bqbh1","true","23","weiblich","rechts","Deutsch","true","","","","","","","","","","","",""
"3892","","survey-text","2","2.0.0","19422","q4f85mgtb1bqbh1","true","23","weiblich","rechts","Deutsch","","demo","{""Q0"":""23""}","","","","","","","","","",""
"3981","","survey-multi-choice","3","2.0.0","23407","q4f85mgtb1bqbh1","true","23","weiblich","rechts","Deutsch","","","{""gender"":""weiblich"",""handedness"":""rechts"",""language"":""Deutsch""}","[0,1,2]","","","","","","","","",""
"","","preload","4","2.0.0","25650","q4f85mgtb1bqbh1","true","23","weiblich","rechts","Deutsch","true","","","","false","[]","[]","[]","","","","",""
"","","preload","5","2.0.0","25974","q4f85mgtb1bqbh1","true","23","weiblich","rechts","Deutsch","true","","","","false","[]","[]","[]","","","","",""
"","","preload","6","2.0.0","26835","q4f85mgtb1bqbh1","true","23","weiblich","rechts","Deutsch","true","","","","false","[]","[]","[]","","","","",""
"860","","html-keyboard-response","7","2.0.0","27696","q4f85mgtb1bqbh1","true","23","weiblich","rechts","Deutsch","",""," ","","","","","","Willkommen zum Experiment. Drücken Sie eine beliebige Taste, um zu beginnen.","","","",""
"4531","","html-keyboard-response","8","2.0.0","32227","q4f85mgtb1bqbh1","true","23","weiblich","rechts","Deutsch","",""," ","","","","","","
    <p>In diesem Experiment werden nacheinander automatisch verschiedene Gesichter angezeigt.</p>
    <p>Bitte achten Sie genau auf jedes Gesicht und den dazugehörigen Namen.</p>
    <p>Die Gesichter erscheinen von selbst und Sie brauchen nichts weiter zu tun, außer aufmerksam zu sein.</p>
    <p>Drücken Sie eine beliebige Taste, um zu beginnen, wenn Sie bereit sind.</p>
  ","","","",""
"null","","html-keyboard-response","9","2.0.0","33255","q4f85mgtb1bqbh1","true","23","weiblich","rechts","Deutsch","","","null","","","","","","<div style=""font-size:60px;"">+</div>","fixation","","",""
"null","","html-keyboard-response","10","2.0.0","34260","q4f85mgtb1bqbh1","true","23","weiblich","rechts","Deutsch","","","null","","","","","","
      <img class=""person-img"" src=""https://raw.githubusercontent.com/saramff/face-recognition-images/refs/heads/master//women/woman_37.jpg"">
      <p class=""person-name"">Veronika</p>
    ","","","",""
"null","","html-keyboard-response","11","2.0.0","35289","q4f85mgtb1bqbh1","true","23","weiblich","rechts","Deutsch","","","null","","","","","","<div style=""font-size:60px;"">+</div>","fixation","","",""
"null","","html-keyboard-response","12","2.0.0","36293","q4f85mgtb1bqbh1","true","23","weiblich","rechts","Deutsch","","","null","","","","","","
      <img class=""person-img"" src=""https://raw.githubusercontent.com/saramff/face-recognition-images/refs/heads/master//women/woman_54.jpg"">
      <p class=""person-name"">Zoe</p>
    ","","","",""
"null","","html-keyboard-response","13","2.0.0","37308","q4f85mgtb1bqbh1","true","23","weiblich","rechts","Deutsch","","","null","","","","","","<div style=""font-size:60px;"">+</div>","fixation","","",""
"null","","html-keyboard-response","14","2.0.0","38324","q4f85mgtb1bqbh1","true","23","weiblich","rechts","Deutsch","","","null","","","","","","
      <img class=""person-img"" src=""https://raw.githubusercontent.com/saramff/face-recognition-images/refs/heads/master//women/woman_26.jpg"">
      <p class=""person-name"">Maja</p>
    ","","","",""
"null","","html-keyboard-response","15","2.0.0","39342","q4f85mgtb1bqbh1","true","23","weiblich","rechts","Deutsch","","","null","","","","","","<div style=""font-size:60px;"">+</div>","fixation","","",""
"null","","html-keyboard-response","16","2.0.0","40346","q4f85mgtb1bqbh1","true","23","weiblich","rechts","Deutsch","","","null","","","","","","
      <img class=""person-img"" src=""https://raw.githubusercontent.com/saramff/face-recognition-images/refs/heads/master//women/woman_11.jpg"">
      <p class=""person-name"">Ariane</p>
    ","","","",""
"null","","html-keyboard-response","17","2.0.0","41365","q4f85mgtb1bqbh1","true","23","weiblich","rechts","Deutsch","","","null","","","","","","<div style=""font-size:60px;"">+</div>","fixation","","",""
"null","","html-keyboard-response","18","2.0.0","42370","q4f85mgtb1bqbh1","true","23","weiblich","rechts","Deutsch","","","null","","","","","","
      <img class=""person-img"" src=""https://raw.githubusercontent.com/saramff/face-recognition-images/refs/heads/master//women/woman_55.jpg"">
      <p class=""person-name"">Sophia</p>
    ","","","",""
"null","","html-keyboard-response","19","2.0.0","43380","q4f85mgtb1bqbh1","true","23","weiblich","rechts","Deutsch","","","null","","","","","","<div style=""font-size:60px;"">+</div>","fixation","","",""
"null","","html-keyboard-response","20","2.0.0","44385","q4f85mgtb1bqbh1","true","23","weiblich","rechts","Deutsch","","","null","","","","","","
      <img class=""person-img"" src=""https://raw.githubusercontent.com/saramff/face-recognition-images/refs/heads/master//women/woman_41.jpg"">
      <p class=""person-name"">Leila</p>
    ","","","",""
"null","","html-keyboard-response","21","2.0.0","45397","q4f85mgtb1bqbh1","true","23","weiblich","rechts","Deutsch","","","null","","","","","","<div style=""font-size:60px;"">+</div>","fixation","","",""
"null","","html-keyboard-response","22","2.0.0","46402","q4f85mgtb1bqbh1","true","23","weiblich","rechts","Deutsch","","","null","","","","","","
      <img class=""person-img"" src=""https://raw.githubusercontent.com/saramff/face-recognition-images/refs/heads/master//women/woman_44.jpg"">
      <p class=""person-name"">Anja</p>
    ","","","",""
"null","","html-keyboard-response","23","2.0.0","47419","q4f85mgtb1bqbh1","true","23","weiblich","rechts","Deutsch","","","null","","","","","","<div style=""font-size:60px;"">+</div>","fixation","","",""
"null","","html-keyboard-response","24","2.0.0","48435","q4f85mgtb1bqbh1","true","23","weiblich","rechts","Deutsch","","","null","","","","","","
      <img class=""person-img"" src=""https://raw.githubusercontent.com/saramff/face-recognition-images/refs/heads/master//men/man_80.jpg"">
      <p class=""person-name"">Ludwig</p>
    ","","","",""
"null","","html-keyboard-response","25","2.0.0","49442","q4f85mgtb1bqbh1","true","23","weiblich","rechts","Deutsch","","","null","","","","","","<div style=""font-size:60px;"">+</div>","fixation","","",""
"null","","html-keyboard-response","26","2.0.0","50454","q4f85mgtb1bqbh1","true","23","weiblich","rechts","Deutsch","","","null","","","","","","
      <img class=""person-img"" src=""https://raw.githubusercontent.com/saramff/face-recognition-images/refs/heads/master//men/man_3.jpg"">
      <p class=""person-name"">Oliver</p>
    ","","","",""
"null","","html-keyboard-response","27","2.0.0","51484","q4f85mgtb1bqbh1","true","23","weiblich","rechts","Deutsch","","","null","","","","","","<div style=""font-size:60px;"">+</div>","fixation","","",""
"null","","html-keyboard-response","28","2.0.0","52497","q4f85mgtb1bqbh1","true","23","weiblich","rechts","Deutsch","","","null","","","","","","
      <img class=""person-img"" src=""https://raw.githubusercontent.com/saramff/face-recognition-images/refs/heads/master//men/man_21.jpg"">
      <p class=""person-name"">Aaron</p>
    ","","","",""
"null","","html-keyboard-response","29","2.0.0","53517","q4f85mgtb1bqbh1","true","23","weiblich","rechts","Deutsch","","","null","","","","","","<div style=""font-size:60px;"">+</div>","fixation","","",""
"null","","html-keyboard-response","30","2.0.0","54534","q4f85mgtb1bqbh1","true","23","weiblich","rechts","Deutsch","","","null","","","","","","
      <img class=""person-img"" src=""https://raw.githubusercontent.com/saramff/face-recognition-images/refs/heads/master//men/man_68.jpg"">
      <p class=""person-name"">Holger</p>
    ","","","",""
"null","","html-keyboard-response","31","2.0.0","55548","q4f85mgtb1bqbh1","true","23","weiblich","rechts","Deutsch","","","null","","","","","","<div style=""font-size:60px;"">+</div>","fixation","","",""
"null","","html-keyboard-response","32","2.0.0","56562","q4f85mgtb1bqbh1","true","23","weiblich","rechts","Deutsch","","","null","","","","","","
      <img class=""person-img"" src=""https://raw.githubusercontent.com/saramff/face-recognition-images/refs/heads/master//men/man_42.jpg"">
      <p class=""person-name"">Lukas</p>
    ","","","",""
"null","","html-keyboard-response","33","2.0.0","57587","q4f85mgtb1bqbh1","true","23","weiblich","rechts","Deutsch","","","null","","","","","","<div style=""font-size:60px;"">+</div>","fixation","","",""
"null","","html-keyboard-response","34","2.0.0","58602","q4f85mgtb1bqbh1","true","23","weiblich","rechts","Deutsch","","","null","","","","","","
      <img class=""person-img"" src=""https://raw.githubusercontent.com/saramff/face-recognition-images/refs/heads/master//women/woman_46.jpg"">
      <p class=""person-name"">Ariane</p>
    ","","","",""
"null","","html-keyboard-response","35","2.0.0","59611","q4f85mgtb1bqbh1","true","23","weiblich","rechts","Deutsch","","","null","","","","","","<div style=""font-size:60px;"">+</div>","fixation","","",""
"null","","html-keyboard-response","36","2.0.0","60613","q4f85mgtb1bqbh1","true","23","weiblich","rechts","Deutsch","","","null","","","","","","
      <img class=""person-img"" src=""https://raw.githubusercontent.com/saramff/face-recognition-images/refs/heads/master//women/woman_34.jpg"">
      <p class=""person-name"">Emma</p>
    ","","","",""
"null","","html-keyboard-response","37","2.0.0","61638","q4f85mgtb1bqbh1","true","23","weiblich","rechts","Deutsch","","","null","","","","","","<div style=""font-size:60px;"">+</div>","fixation","","",""
"null","","html-keyboard-response","38","2.0.0","62645","q4f85mgtb1bqbh1","true","23","weiblich","rechts","Deutsch","","","null","","","","","","
      <img class=""person-img"" src=""https://raw.githubusercontent.com/saramff/face-recognition-images/refs/heads/master//women/woman_89.jpg"">
      <p class=""person-name"">Lucie</p>
    ","","","",""
"null","","html-keyboard-response","39","2.0.0","63664","q4f85mgtb1bqbh1","true","23","weiblich","rechts","Deutsch","","","null","","","","","","<div style=""font-size:60px;"">+</div>","fixation","","",""
"null","","html-keyboard-response","40","2.0.0","64678","q4f85mgtb1bqbh1","true","23","weiblich","rechts","Deutsch","","","null","","","","","","
      <img class=""person-img"" src=""https://raw.githubusercontent.com/saramff/face-recognition-images/refs/heads/master//women/woman_32.jpg"">
      <p class=""person-name"">Mathilda</p>
    ","","","",""
"null","","html-keyboard-response","41","2.0.0","65694","q4f85mgtb1bqbh1","true","23","weiblich","rechts","Deutsch","","","null","","","","","","<div style=""font-size:60px;"">+</div>","fixation","","",""
"null","","html-keyboard-response","42","2.0.0","66697","q4f85mgtb1bqbh1","true","23","weiblich","rechts","Deutsch","","","null","","","","","","
      <img class=""person-img"" src=""https://raw.githubusercontent.com/saramff/face-recognition-images/refs/heads/master//men/man_1.jpg"">
      <p class=""person-name"">Clemens</p>
    ","","","",""
"null","","html-keyboard-response","43","2.0.0","67715","q4f85mgtb1bqbh1","true","23","weiblich","rechts","Deutsch","","","null","","","","","","<div style=""font-size:60px;"">+</div>","fixation","","",""
"null","","html-keyboard-response","44","2.0.0","68729","q4f85mgtb1bqbh1","true","23","weiblich","rechts","Deutsch","","","null","","","","","","
      <img class=""person-img"" src=""https://raw.githubusercontent.com/saramff/face-recognition-images/refs/heads/master//women/woman_45.jpg"">
      <p class=""person-name"">Viktoria</p>
    ","","","",""
"null","","html-keyboard-response","45","2.0.0","69747","q4f85mgtb1bqbh1","true","23","weiblich","rechts","Deutsch","","","null","","","","","","<div style=""font-size:60px;"">+</div>","fixation","","",""
"null","","html-keyboard-response","46","2.0.0","70761","q4f85mgtb1bqbh1","true","23","weiblich","rechts","Deutsch","","","null","","","","","","
      <img class=""person-img"" src=""https://raw.githubusercontent.com/saramff/face-recognition-images/refs/heads/master//men/man_65.jpg"">
      <p class=""person-name"">Gabriel</p>
    ","","","",""
"null","","html-keyboard-response","47","2.0.0","71779","q4f85mgtb1bqbh1","true","23","weiblich","rechts","Deutsch","","","null","","","","","","<div style=""font-size:60px;"">+</div>","fixation","","",""
"null","","html-keyboard-response","48","2.0.0","72796","q4f85mgtb1bqbh1","true","23","weiblich","rechts","Deutsch","","","null","","","","","","
      <img class=""person-img"" src=""https://raw.githubusercontent.com/saramff/face-recognition-images/refs/heads/master//men/man_7.jpg"">
      <p class=""person-name"">Sven</p>
    ","","","",""
"null","","html-keyboard-response","49","2.0.0","73809","q4f85mgtb1bqbh1","true","23","weiblich","rechts","Deutsch","","","null","","","","","","<div style=""font-size:60px;"">+</div>","fixation","","",""
"null","","html-keyboard-response","50","2.0.0","74814","q4f85mgtb1bqbh1","true","23","weiblich","rechts","Deutsch","","","null","","","","","","
      <img class=""person-img"" src=""https://raw.githubusercontent.com/saramff/face-recognition-images/refs/heads/master//women/woman_18.jpg"">
      <p class=""person-name"">Franziska</p>
    ","","","",""
"null","","html-keyboard-response","51","2.0.0","75829","q4f85mgtb1bqbh1","true","23","weiblich","rechts","Deutsch","","","null","","","","","","<div style=""font-size:60px;"">+</div>","fixation","","",""
"null","","html-keyboard-response","52","2.0.0","76835","q4f85mgtb1bqbh1","true","23","weiblich","rechts","Deutsch","","","null","","","","","","
      <img class=""person-img"" src=""https://raw.githubusercontent.com/saramff/face-recognition-images/refs/heads/master//women/woman_14.jpg"">
      <p class=""person-name"">Louisa</p>
    ","","","",""
"null","","html-keyboard-response","53","2.0.0","77851","q4f85mgtb1bqbh1","true","23","weiblich","rechts","Deutsch","","","null","","","","","","<div style=""font-size:60px;"">+</div>","fixation","","",""
"null","","html-keyboard-response","54","2.0.0","78866","q4f85mgtb1bqbh1","true","23","weiblich","rechts","Deutsch","","","null","","","","","","
      <img class=""person-img"" src=""https://raw.githubusercontent.com/saramff/face-recognition-images/refs/heads/master//women/woman_58.jpg"">
      <p class=""person-name"">Lotte</p>
    ","","","",""
"null","","html-keyboard-response","55","2.0.0","79881","q4f85mgtb1bqbh1","true","23","weiblich","rechts","Deutsch","","","null","","","","","","<div style=""font-size:60px;"">+</div>","fixation","","",""
"null","","html-keyboard-response","56","2.0.0","80883","q4f85mgtb1bqbh1","true","23","weiblich","rechts","Deutsch","","","null","","","","","","
      <img class=""person-img"" src=""https://raw.githubusercontent.com/saramff/face-recognition-images/refs/heads/master//women/woman_67.jpg"">
      <p class=""person-name"">Claudia</p>
    ","","","",""
"null","","html-keyboard-response","57","2.0.0","81889","q4f85mgtb1bqbh1","true","23","weiblich","rechts","Deutsch","","","null","","","","","","<div style=""font-size:60px;"">+</div>","fixation","","",""
"null","","html-keyboard-response","58","2.0.0","82901","q4f85mgtb1bqbh1","true","23","weiblich","rechts","Deutsch","","","null","","","","","","
      <img class=""person-img"" src=""https://raw.githubusercontent.com/saramff/face-recognition-images/refs/heads/master//women/woman_62.jpg"">
      <p class=""person-name"">Lena</p>
    ","","","",""
"null","","html-keyboard-response","59","2.0.0","83917","q4f85mgtb1bqbh1","true","23","weiblich","rechts","Deutsch","","","null","","","","","","<div style=""font-size:60px;"">+</div>","fixation","","",""
"null","","html-keyboard-response","60","2.0.0","84922","q4f85mgtb1bqbh1","true","23","weiblich","rechts","Deutsch","","","null","","","","","","
      <img class=""person-img"" src=""https://raw.githubusercontent.com/saramff/face-recognition-images/refs/heads/master//men/man_30.jpg"">
      <p class=""person-name"">Karl</p>
    ","","","",""
"null","","html-keyboard-response","61","2.0.0","85942","q4f85mgtb1bqbh1","true","23","weiblich","rechts","Deutsch","","","null","","","","","","<div style=""font-size:60px;"">+</div>","fixation","","",""
"null","","html-keyboard-response","62","2.0.0","86954","q4f85mgtb1bqbh1","true","23","weiblich","rechts","Deutsch","","","null","","","","","","
      <img class=""person-img"" src=""https://raw.githubusercontent.com/saramff/face-recognition-images/refs/heads/master//men/man_58.jpg"">
      <p class=""person-name"">Robert</p>
    ","","","",""
"null","","html-keyboard-response","63","2.0.0","87970","q4f85mgtb1bqbh1","true","23","weiblich","rechts","Deutsch","","","null","","","","","","<div style=""font-size:60px;"">+</div>","fixation","","",""
"null","","html-keyboard-response","64","2.0.0","88972","q4f85mgtb1bqbh1","true","23","weiblich","rechts","Deutsch","","","null","","","","","","
      <img class=""person-img"" src=""https://raw.githubusercontent.com/saramff/face-recognition-images/refs/heads/master//women/woman_70.jpg"">
      <p class=""person-name"">Michaela</p>
    ","","","",""
"null","","html-keyboard-response","65","2.0.0","89995","q4f85mgtb1bqbh1","true","23","weiblich","rechts","Deutsch","","","null","","","","","","<div style=""font-size:60px;"">+</div>","fixation","","",""
"null","","html-keyboard-response","66","2.0.0","91000","q4f85mgtb1bqbh1","true","23","weiblich","rechts","Deutsch","","","null","","","","","","
      <img class=""person-img"" src=""https://raw.githubusercontent.com/saramff/face-recognition-images/refs/heads/master//men/man_11.jpg"">
      <p class=""person-name"">Julian</p>
    ","","","",""
"null","","html-keyboard-response","67","2.0.0","92012","q4f85mgtb1bqbh1","true","23","weiblich","rechts","Deutsch","","","null","","","","","","<div style=""font-size:60px;"">+</div>","fixation","","",""
"null","","html-keyboard-response","68","2.0.0","93028","q4f85mgtb1bqbh1","true","23","weiblich","rechts","Deutsch","","","null","","","","","","
      <img class=""person-img"" src=""https://raw.githubusercontent.com/saramff/face-recognition-images/refs/heads/master//men/man_94.jpg"">
      <p class=""person-name"">Jochen</p>
    ","","","",""
"null","","html-keyboard-response","69","2.0.0","94050","q4f85mgtb1bqbh1","true","23","weiblich","rechts","Deutsch","","","null","","","","","","<div style=""font-size:60px;"">+</div>","fixation","","",""
"null","","html-keyboard-response","70","2.0.0","95066","q4f85mgtb1bqbh1","true","23","weiblich","rechts","Deutsch","","","null","","","","","","
      <img class=""person-img"" src=""https://raw.githubusercontent.com/saramff/face-recognition-images/refs/heads/master//men/man_46.jpg"">
      <p class=""person-name"">Paul</p>
    ","","","",""
"null","","html-keyboard-response","71","2.0.0","96082","q4f85mgtb1bqbh1","true","23","weiblich","rechts","Deutsch","","","null","","","","","","<div style=""font-size:60px;"">+</div>","fixation","","",""
"null","","html-keyboard-response","72","2.0.0","97096","q4f85mgtb1bqbh1","true","23","weiblich","rechts","Deutsch","","","null","","","","","","
      <img class=""person-img"" src=""https://raw.githubusercontent.com/saramff/face-recognition-images/refs/heads/master//women/woman_64.jpg"">
      <p class=""person-name"">Klara</p>
    ","","","",""
"null","","html-keyboard-response","73","2.0.0","98117","q4f85mgtb1bqbh1","true","23","weiblich","rechts","Deutsch","","","null","","","","","","<div style=""font-size:60px;"">+</div>","fixation","","",""
"null","","html-keyboard-response","74","2.0.0","99128","q4f85mgtb1bqbh1","true","23","weiblich","rechts","Deutsch","","","null","","","","","","
      <img class=""person-img"" src=""https://raw.githubusercontent.com/saramff/face-recognition-images/refs/heads/master//women/woman_43.jpg"">
      <p class=""person-name"">Marlene</p>
    ","","","",""
"null","","html-keyboard-response","75","2.0.0","100135","q4f85mgtb1bqbh1","true","23","weiblich","rechts","Deutsch","","","null","","","","","","<div style=""font-size:60px;"">+</div>","fixation","","",""
"null","","html-keyboard-response","76","2.0.0","101152","q4f85mgtb1bqbh1","true","23","weiblich","rechts","Deutsch","","","null","","","","","","
      <img class=""person-img"" src=""https://raw.githubusercontent.com/saramff/face-recognition-images/refs/heads/master//men/man_76.jpg"">
      <p class=""person-name"">Rolf</p>
    ","","","",""
"null","","html-keyboard-response","77","2.0.0","102169","q4f85mgtb1bqbh1","true","23","weiblich","rechts","Deutsch","","","null","","","","","","<div style=""font-size:60px;"">+</div>","fixation","","",""
"null","","html-keyboard-response","78","2.0.0","103182","q4f85mgtb1bqbh1","true","23","weiblich","rechts","Deutsch","","","null","","","","","","
      <img class=""person-img"" src=""https://raw.githubusercontent.com/saramff/face-recognition-images/refs/heads/master//women/woman_13.jpg"">
      <p class=""person-name"">Marie</p>
    ","","","",""
"null","","html-keyboard-response","79","2.0.0","104199","q4f85mgtb1bqbh1","true","23","weiblich","rechts","Deutsch","","","null","","","","","","<div style=""font-size:60px;"">+</div>","fixation","","",""
"null","","html-keyboard-response","80","2.0.0","105204","q4f85mgtb1bqbh1","true","23","weiblich","rechts","Deutsch","","","null","","","","","","
      <img class=""person-img"" src=""https://raw.githubusercontent.com/saramff/face-recognition-images/refs/heads/master//women/woman_17.jpg"">
      <p class=""person-name"">Lisa</p>
    ","","","",""
"null","","html-keyboard-response","81","2.0.0","106216","q4f85mgtb1bqbh1","true","23","weiblich","rechts","Deutsch","","","null","","","","","","<div style=""font-size:60px;"">+</div>","fixation","","",""
"null","","html-keyboard-response","82","2.0.0","107223","q4f85mgtb1bqbh1","true","23","weiblich","rechts","Deutsch","","","null","","","","","","
      <img class=""person-img"" src=""https://raw.githubusercontent.com/saramff/face-recognition-images/refs/heads/master//men/man_34.jpg"">
      <p class=""person-name"">Robin</p>
    ","","","",""
"null","","html-keyboard-response","83","2.0.0","108240","q4f85mgtb1bqbh1","true","23","weiblich","rechts","Deutsch","","","null","","","","","","<div style=""font-size:60px;"">+</div>","fixation","","",""
"null","","html-keyboard-response","84","2.0.0","109252","q4f85mgtb1bqbh1","true","23","weiblich","rechts","Deutsch","","","null","","","","","","
      <img class=""person-img"" src=""https://raw.githubusercontent.com/saramff/face-recognition-images/refs/heads/master//men/man_28.jpg"">
      <p class=""person-name"">Dirk</p>
    ","","","",""
"null","","html-keyboard-response","85","2.0.0","110258","q4f85mgtb1bqbh1","true","23","weiblich","rechts","Deutsch","","","null","","","","","","<div style=""font-size:60px;"">+</div>","fixation","","",""
"null","","html-keyboard-response","86","2.0.0","111273","q4f85mgtb1bqbh1","true","23","weiblich","rechts","Deutsch","","","null","","","","","","
      <img class=""person-img"" src=""https://raw.githubusercontent.com/saramff/face-recognition-images/refs/heads/master//men/man_9.jpg"">
      <p class=""person-name"">Moritz</p>
    ","","","",""
"null","","html-keyboard-response","87","2.0.0","112291","q4f85mgtb1bqbh1","true","23","weiblich","rechts","Deutsch","","","null","","","","","","<div style=""font-size:60px;"">+</div>","fixation","","",""
"null","","html-keyboard-response","88","2.0.0","113303","q4f85mgtb1bqbh1","true","23","weiblich","rechts","Deutsch","","","null","","","","","","
      <img class=""person-img"" src=""https://raw.githubusercontent.com/saramff/face-recognition-images/refs/heads/master//men/man_25.jpg"">
      <p class=""person-name"">Konrad</p>
    ","","","",""
"null","","html-keyboard-response","89","2.0.0","114323","q4f85mgtb1bqbh1","true","23","weiblich","rechts","Deutsch","","","null","","","","","","<div style=""font-size:60px;"">+</div>","fixation","","",""
"null","","html-keyboard-response","90","2.0.0","115328","q4f85mgtb1bqbh1","true","23","weiblich","rechts","Deutsch","","","null","","","","","","
      <img class=""person-img"" src=""https://raw.githubusercontent.com/saramff/face-recognition-images/refs/heads/master//men/man_15.jpg"">
      <p class=""person-name"">Bruno</p>
    ","","","",""
"null","","html-keyboard-response","91","2.0.0","116345","q4f85mgtb1bqbh1","true","23","weiblich","rechts","Deutsch","","","null","","","","","","<div style=""font-size:60px;"">+</div>","fixation","","",""
"null","","html-keyboard-response","92","2.0.0","117362","q4f85mgtb1bqbh1","true","23","weiblich","rechts","Deutsch","","","null","","","","","","
      <img class=""person-img"" src=""https://raw.githubusercontent.com/saramff/face-recognition-images/refs/heads/master//women/woman_68.jpg"">
      <p class=""person-name"">Neele</p>
    ","","","",""
"null","","html-keyboard-response","93","2.0.0","118377","q4f85mgtb1bqbh1","true","23","weiblich","rechts","Deutsch","","","null","","","","","","<div style=""font-size:60px;"">+</div>","fixation","","",""
"null","","html-keyboard-response","94","2.0.0","119391","q4f85mgtb1bqbh1","true","23","weiblich","rechts","Deutsch","","","null","","","","","","
      <img class=""person-img"" src=""https://raw.githubusercontent.com/saramff/face-recognition-images/refs/heads/master//women/woman_93.jpg"">
      <p class=""person-name"">Valentina</p>
    ","","","",""
"null","","html-keyboard-response","95","2.0.0","120412","q4f85mgtb1bqbh1","true","23","weiblich","rechts","Deutsch","","","null","","","","","","<div style=""font-size:60px;"">+</div>","fixation","","",""
"null","","html-keyboard-response","96","2.0.0","121429","q4f85mgtb1bqbh1","true","23","weiblich","rechts","Deutsch","","","null","","","","","","
      <img class=""person-img"" src=""https://raw.githubusercontent.com/saramff/face-recognition-images/refs/heads/master//men/man_86.jpg"">
      <p class=""person-name"">Benedikt</p>
    ","","","",""
"null","","html-keyboard-response","97","2.0.0","122448","q4f85mgtb1bqbh1","true","23","weiblich","rechts","Deutsch","","","null","","","","","","<div style=""font-size:60px;"">+</div>","fixation","","",""
"null","","html-keyboard-response","98","2.0.0","123464","q4f85mgtb1bqbh1","true","23","weiblich","rechts","Deutsch","","","null","","","","","","
      <img class=""person-img"" src=""https://raw.githubusercontent.com/saramff/face-recognition-images/refs/heads/master//men/man_50.jpg"">
      <p class=""person-name"">Ulrich</p>
    ","","","",""
"null","","html-keyboard-response","99","2.0.0","124482","q4f85mgtb1bqbh1","true","23","weiblich","rechts","Deutsch","","","null","","","","","","<div style=""font-size:60px;"">+</div>","fixation","","",""
"null","","html-keyboard-response","100","2.0.0","125497","q4f85mgtb1bqbh1","true","23","weiblich","rechts","Deutsch","","","null","","","","","","
      <img class=""person-img"" src=""https://raw.githubusercontent.com/saramff/face-recognition-images/refs/heads/master//women/woman_25.jpg"">
      <p class=""person-name"">Fabienne</p>
    ","","","",""
"null","","html-keyboard-response","101","2.0.0","126515","q4f85mgtb1bqbh1","true","23","weiblich","rechts","Deutsch","","","null","","","","","","<div style=""font-size:60px;"">+</div>","fixation","","",""
"null","","html-keyboard-response","102","2.0.0","127519","q4f85mgtb1bqbh1","true","23","weiblich","rechts","Deutsch","","","null","","","","","","
      <img class=""person-img"" src=""https://raw.githubusercontent.com/saramff/face-recognition-images/refs/heads/master//men/man_89.jpg"">
      <p class=""person-name"">Viktor</p>
    ","","","",""
"null","","html-keyboard-response","103","2.0.0","128542","q4f85mgtb1bqbh1","true","23","weiblich","rechts","Deutsch","","","null","","","","","","<div style=""font-size:60px;"">+</div>","fixation","","",""
"null","","html-keyboard-response","104","2.0.0","129557","q4f85mgtb1bqbh1","true","23","weiblich","rechts","Deutsch","","","null","","","","","","
      <img class=""person-img"" src=""https://raw.githubusercontent.com/saramff/face-recognition-images/refs/heads/master//men/man_57.jpg"">
      <p class=""person-name"">Jonathan</p>
    ","","","",""
"null","","html-keyboard-response","105","2.0.0","130587","q4f85mgtb1bqbh1","true","23","weiblich","rechts","Deutsch","","","null","","","","","","<div style=""font-size:60px;"">+</div>","fixation","","",""
"null","","html-keyboard-response","106","2.0.0","131589","q4f85mgtb1bqbh1","true","23","weiblich","rechts","Deutsch","","","null","","","","","","
      <img class=""person-img"" src=""https://raw.githubusercontent.com/saramff/face-recognition-images/refs/heads/master//men/man_90.jpg"">
      <p class=""person-name"">Heiko</p>
    ","","","",""
"null","","html-keyboard-response","107","2.0.0","132604","q4f85mgtb1bqbh1","true","23","weiblich","rechts","Deutsch","","","null","","","","","","<div style=""font-size:60px;"">+</div>","fixation","","",""
"null","","html-keyboard-response","108","2.0.0","133622","q4f85mgtb1bqbh1","true","23","weiblich","rechts","Deutsch","","","null","","","","","","
      <img class=""person-img"" src=""https://raw.githubusercontent.com/saramff/face-recognition-images/refs/heads/master//women/woman_39.jpg"">
      <p class=""person-name"">Viola</p>
    ","","","",""
"null","","html-keyboard-response","109","2.0.0","134641","q4f85mgtb1bqbh1","true","23","weiblich","rechts","Deutsch","","","null","","","","","","<div style=""font-size:60px;"">+</div>","fixation","","",""
"null","","html-keyboard-response","110","2.0.0","135645","q4f85mgtb1bqbh1","true","23","weiblich","rechts","Deutsch","","","null","","","","","","
      <img class=""person-img"" src=""https://raw.githubusercontent.com/saramff/face-recognition-images/refs/heads/master//men/man_27.jpg"">
      <p class=""person-name"">Kai</p>
    ","","","",""
"null","","html-keyboard-response","111","2.0.0","136673","q4f85mgtb1bqbh1","true","23","weiblich","rechts","Deutsch","","","null","","","","","","<div style=""font-size:60px;"">+</div>","fixation","","",""
"null","","html-keyboard-response","112","2.0.0","137682","q4f85mgtb1bqbh1","true","23","weiblich","rechts","Deutsch","","","null","","","","","","
      <img class=""person-img"" src=""https://raw.githubusercontent.com/saramff/face-recognition-images/refs/heads/master//women/woman_96.jpg"">
      <p class=""person-name"">Christina</p>
    ","","","",""
"null","","html-keyboard-response","113","2.0.0","138694","q4f85mgtb1bqbh1","true","23","weiblich","rechts","Deutsch","","","null","","","","","","<div style=""font-size:60px;"">+</div>","fixation","","",""
"null","","html-keyboard-response","114","2.0.0","139705","q4f85mgtb1bqbh1","true","23","weiblich","rechts","Deutsch","","","null","","","","","","
      <img class=""person-img"" src=""https://raw.githubusercontent.com/saramff/face-recognition-images/refs/heads/master//women/woman_84.jpg"">
      <p class=""person-name"">Celine</p>
    ","","","",""
"null","","html-keyboard-response","115","2.0.0","140721","q4f85mgtb1bqbh1","true","23","weiblich","rechts","Deutsch","","","null","","","","","","<div style=""font-size:60px;"">+</div>","fixation","","",""
"null","","html-keyboard-response","116","2.0.0","141726","q4f85mgtb1bqbh1","true","23","weiblich","rechts","Deutsch","","","null","","","","","","
      <img class=""person-img"" src=""https://raw.githubusercontent.com/saramff/face-recognition-images/refs/heads/master//men/man_41.jpg"">
      <p class=""person-name"">Philipp</p>
    ","","","",""
"null","","html-keyboard-response","117","2.0.0","142731","q4f85mgtb1bqbh1","true","23","weiblich","rechts","Deutsch","","","null","","","","","","<div style=""font-size:60px;"">+</div>","fixation","","",""
"null","","html-keyboard-response","118","2.0.0","143735","q4f85mgtb1bqbh1","true","23","weiblich","rechts","Deutsch","","","null","","","","","","
      <img class=""person-img"" src=""https://raw.githubusercontent.com/saramff/face-recognition-images/refs/heads/master//men/man_69.jpg"">
      <p class=""person-name"">Michael</p>
    ","","","",""
"null","","html-keyboard-response","119","2.0.0","144752","q4f85mgtb1bqbh1","true","23","weiblich","rechts","Deutsch","","","null","","","","","","<div style=""font-size:60px;"">+</div>","fixation","","",""
"null","","html-keyboard-response","120","2.0.0","145768","q4f85mgtb1bqbh1","true","23","weiblich","rechts","Deutsch","","","null","","","","","","
      <img class=""person-img"" src=""https://raw.githubusercontent.com/saramff/face-recognition-images/refs/heads/master//men/man_87.jpg"">
      <p class=""person-name"">Thomas</p>
    ","","","",""
"null","","html-keyboard-response","121","2.0.0","146783","q4f85mgtb1bqbh1","true","23","weiblich","rechts","Deutsch","","","null","","","","","","<div style=""font-size:60px;"">+</div>","fixation","","",""
"null","","html-keyboard-response","122","2.0.0","147801","q4f85mgtb1bqbh1","true","23","weiblich","rechts","Deutsch","","","null","","","","","","
      <img class=""person-img"" src=""https://raw.githubusercontent.com/saramff/face-recognition-images/refs/heads/master//women/woman_77.jpg"">
      <p class=""person-name"">Elisabeth</p>
    ","","","",""
"null","","html-keyboard-response","123","2.0.0","148815","q4f85mgtb1bqbh1","true","23","weiblich","rechts","Deutsch","","","null","","","","","","<div style=""font-size:60px;"">+</div>","fixation","","",""
"null","","html-keyboard-response","124","2.0.0","149822","q4f85mgtb1bqbh1","true","23","weiblich","rechts","Deutsch","","","null","","","","","","
      <img class=""person-img"" src=""https://raw.githubusercontent.com/saramff/face-recognition-images/refs/heads/master//men/man_56.jpg"">
      <p class=""person-name"">Bernd</p>
    ","","","",""
"null","","html-keyboard-response","125","2.0.0","150836","q4f85mgtb1bqbh1","true","23","weiblich","rechts","Deutsch","","","null","","","","","","<div style=""font-size:60px;"">+</div>","fixation","","",""
"null","","html-keyboard-response","126","2.0.0","151853","q4f85mgtb1bqbh1","true","23","weiblich","rechts","Deutsch","","","null","","","","","","
      <img class=""person-img"" src=""https://raw.githubusercontent.com/saramff/face-recognition-images/refs/heads/master//women/woman_76.jpg"">
      <p class=""person-name"">Kerstin</p>
    ","","","",""
"null","","html-keyboard-response","127","2.0.0","152870","q4f85mgtb1bqbh1","true","23","weiblich","rechts","Deutsch","","","null","","","","","","<div style=""font-size:60px;"">+</div>","fixation","","",""
"null","","html-keyboard-response","128","2.0.0","153885","q4f85mgtb1bqbh1","true","23","weiblich","rechts","Deutsch","","","null","","","","","","
      <img class=""person-img"" src=""https://raw.githubusercontent.com/saramff/face-recognition-images/refs/heads/master//men/man_91.jpg"">
      <p class=""person-name"">Richard</p>
    ","","","",""
"null","","html-keyboard-response","129","2.0.0","154902","q4f85mgtb1bqbh1","true","23","weiblich","rechts","Deutsch","","","null","","","","","","<div style=""font-size:60px;"">+</div>","fixation","","",""
"null","","html-keyboard-response","130","2.0.0","155904","q4f85mgtb1bqbh1","true","23","weiblich","rechts","Deutsch","","","null","","","","","","
      <img class=""person-img"" src=""https://raw.githubusercontent.com/saramff/face-recognition-images/refs/heads/master//men/man_33.jpg"">
      <p class=""person-name"">Steffen</p>
    ","","","",""
"null","","html-keyboard-response","131","2.0.0","156922","q4f85mgtb1bqbh1","true","23","weiblich","rechts","Deutsch","","","null","","","","","","<div style=""font-size:60px;"">+</div>","fixation","","",""
"null","","html-keyboard-response","132","2.0.0","157925","q4f85mgtb1bqbh1","true","23","weiblich","rechts","Deutsch","","","null","","","","","","
      <img class=""person-img"" src=""https://raw.githubusercontent.com/saramff/face-recognition-images/refs/heads/master//women/woman_75.jpg"">
      <p class=""person-name"">Isabel</p>
    ","","","",""
"null","","html-keyboard-response","133","2.0.0","158941","q4f85mgtb1bqbh1","true","23","weiblich","rechts","Deutsch","","","null","","","","","","<div style=""font-size:60px;"">+</div>","fixation","","",""
"null","","html-keyboard-response","134","2.0.0","159954","q4f85mgtb1bqbh1","true","23","weiblich","rechts","Deutsch","","","null","","","","","","
      <img class=""person-img"" src=""https://raw.githubusercontent.com/saramff/face-recognition-images/refs/heads/master//women/woman_47.jpg"">
      <p class=""person-name"">Paulina</p>
    ","","","",""
"null","","html-keyboard-response","135","2.0.0","160960","q4f85mgtb1bqbh1","true","23","weiblich","rechts","Deutsch","","","null","","","","","","<div style=""font-size:60px;"">+</div>","fixation","","",""
"null","","html-keyboard-response","136","2.0.0","161971","q4f85mgtb1bqbh1","true","23","weiblich","rechts","Deutsch","","","null","","","","","","
      <img class=""person-img"" src=""https://raw.githubusercontent.com/saramff/face-recognition-images/refs/heads/master//men/man_19.jpg"">
      <p class=""person-name"">Jonas</p>
    ","","","",""
"null","","html-keyboard-response","137","2.0.0","162992","q4f85mgtb1bqbh1","true","23","weiblich","rechts","Deutsch","","","null","","","","","","<div style=""font-size:60px;"">+</div>","fixation","","",""
"null","","html-keyboard-response","138","2.0.0","163994","q4f85mgtb1bqbh1","true","23","weiblich","rechts","Deutsch","","","null","","","","","","
      <img class=""person-img"" src=""https://raw.githubusercontent.com/saramff/face-recognition-images/refs/heads/master//women/woman_15.jpg"">
      <p class=""person-name"">Ayla</p>
    ","","","",""
"null","","html-keyboard-response","139","2.0.0","165009","q4f85mgtb1bqbh1","true","23","weiblich","rechts","Deutsch","","","null","","","","","","<div style=""font-size:60px;"">+</div>","fixation","","",""
"null","","html-keyboard-response","140","2.0.0","166012","q4f85mgtb1bqbh1","true","23","weiblich","rechts","Deutsch","","","null","","","","","","
      <img class=""person-img"" src=""https://raw.githubusercontent.com/saramff/face-recognition-images/refs/heads/master//women/woman_27.jpg"">
      <p class=""person-name"">Laura</p>
    ","","","",""
"null","","html-keyboard-response","141","2.0.0","167027","q4f85mgtb1bqbh1","true","23","weiblich","rechts","Deutsch","","","null","","","","","","<div style=""font-size:60px;"">+</div>","fixation","","",""
"null","","html-keyboard-response","142","2.0.0","168031","q4f85mgtb1bqbh1","true","23","weiblich","rechts","Deutsch","","","null","","","","","","
      <img class=""person-img"" src=""https://raw.githubusercontent.com/saramff/face-recognition-images/refs/heads/master//women/woman_53.jpg"">
      <p class=""person-name"">Charlotte</p>
    ","","","",""
"null","","html-keyboard-response","143","2.0.0","169047","q4f85mgtb1bqbh1","true","23","weiblich","rechts","Deutsch","","","null","","","","","","<div style=""font-size:60px;"">+</div>","fixation","","",""
"null","","html-keyboard-response","144","2.0.0","170062","q4f85mgtb1bqbh1","true","23","weiblich","rechts","Deutsch","","","null","","","","","","
      <img class=""person-img"" src=""https://raw.githubusercontent.com/saramff/face-recognition-images/refs/heads/master//men/man_39.jpg"">
      <p class=""person-name"">David</p>
    ","","","",""
"null","","html-keyboard-response","145","2.0.0","171065","q4f85mgtb1bqbh1","true","23","weiblich","rechts","Deutsch","","","null","","","","","","<div style=""font-size:60px;"">+</div>","fixation","","",""
"null","","html-keyboard-response","146","2.0.0","172068","q4f85mgtb1bqbh1","true","23","weiblich","rechts","Deutsch","","","null","","","","","","
      <img class=""person-img"" src=""https://raw.githubusercontent.com/saramff/face-recognition-images/refs/heads/master//men/man_59.jpg"">
      <p class=""person-name"">J&ouml;rg</p>
    ","","","",""
"null","","html-keyboard-response","147","2.0.0","173085","q4f85mgtb1bqbh1","true","23","weiblich","rechts","Deutsch","","","null","","","","","","<div style=""font-size:60px;"">+</div>","fixation","","",""
"null","","html-keyboard-response","148","2.0.0","174101","q4f85mgtb1bqbh1","true","23","weiblich","rechts","Deutsch","","","null","","","","","","
      <img class=""person-img"" src=""https://raw.githubusercontent.com/saramff/face-recognition-images/refs/heads/master//men/man_32.jpg"">
      <p class=""person-name"">Felix</p>
    ","","","",""
"null","","html-keyboard-response","149","2.0.0","175111","q4f85mgtb1bqbh1","true","23","weiblich","rechts","Deutsch","","","null","","","","","","<div style=""font-size:60px;"">+</div>","fixation","","",""
"null","","html-keyboard-response","150","2.0.0","176126","q4f85mgtb1bqbh1","true","23","weiblich","rechts","Deutsch","","","null","","","","","","
      <img class=""person-img"" src=""https://raw.githubusercontent.com/saramff/face-recognition-images/refs/heads/master//women/woman_21.jpg"">
      <p class=""person-name"">Verena</p>
    ","","","",""
"null","","html-keyboard-response","151","2.0.0","177144","q4f85mgtb1bqbh1","true","23","weiblich","rechts","Deutsch","","","null","","","","","","<div style=""font-size:60px;"">+</div>","fixation","","",""
"null","","html-keyboard-response","152","2.0.0","178151","q4f85mgtb1bqbh1","true","23","weiblich","rechts","Deutsch","","","null","","","","","","
      <img class=""person-img"" src=""https://raw.githubusercontent.com/saramff/face-recognition-images/refs/heads/master//women/woman_4.jpg"">
      <p class=""person-name"">Liana</p>
    ","","","",""
"null","","html-keyboard-response","153","2.0.0","179170","q4f85mgtb1bqbh1","true","23","weiblich","rechts","Deutsch","","","null","","","","","","<div style=""font-size:60px;"">+</div>","fixation","","",""
"null","","html-keyboard-response","154","2.0.0","180184","q4f85mgtb1bqbh1","true","23","weiblich","rechts","Deutsch","","","null","","","","","","
      <img class=""person-img"" src=""https://raw.githubusercontent.com/saramff/face-recognition-images/refs/heads/master//men/man_13.jpg"">
      <p class=""person-name"">Matthias</p>
    ","","","",""
"null","","html-keyboard-response","155","2.0.0","181190","q4f85mgtb1bqbh1","true","23","weiblich","rechts","Deutsch","","","null","","","","","","<div style=""font-size:60px;"">+</div>","fixation","","",""
"null","","html-keyboard-response","156","2.0.0","182208","q4f85mgtb1bqbh1","true","23","weiblich","rechts","Deutsch","","","null","","","","","","
      <img class=""person-img"" src=""https://raw.githubusercontent.com/saramff/face-recognition-images/refs/heads/master//men/man_10.jpg"">
      <p class=""person-name"">Achim</p>
    ","","","",""
"null","","html-keyboard-response","157","2.0.0","183223","q4f85mgtb1bqbh1","true","23","weiblich","rechts","Deutsch","","","null","","","","","","<div style=""font-size:60px;"">+</div>","fixation","","",""
"null","","html-keyboard-response","158","2.0.0","184226","q4f85mgtb1bqbh1","true","23","weiblich","rechts","Deutsch","","","null","","","","","","
      <img class=""person-img"" src=""https://raw.githubusercontent.com/saramff/face-recognition-images/refs/heads/master//women/woman_87.jpg"">
      <p class=""person-name"">Finja</p>
    ","","","",""
"null","","html-keyboard-response","159","2.0.0","185257","q4f85mgtb1bqbh1","true","23","weiblich","rechts","Deutsch","","","null","","","","","","<div style=""font-size:60px;"">+</div>","fixation","","",""
"null","","html-keyboard-response","160","2.0.0","186260","q4f85mgtb1bqbh1","true","23","weiblich","rechts","Deutsch","","","null","","","","","","
      <img class=""person-img"" src=""https://raw.githubusercontent.com/saramff/face-recognition-images/refs/heads/master//women/woman_95.jpg"">
      <p class=""person-name"">Frieda</p>
    ","","","",""
"null","","html-keyboard-response","161","2.0.0","187277","q4f85mgtb1bqbh1","true","23","weiblich","rechts","Deutsch","","","null","","","","","","<div style=""font-size:60px;"">+</div>","fixation","","",""
"null","","html-keyboard-response","162","2.0.0","188295","q4f85mgtb1bqbh1","true","23","weiblich","rechts","Deutsch","","","null","","","","","","
      <img class=""person-img"" src=""https://raw.githubusercontent.com/saramff/face-recognition-images/refs/heads/master//men/man_64.jpg"">
      <p class=""person-name"">Leonard</p>
    ","","","",""
"null","","html-keyboard-response","163","2.0.0","189312","q4f85mgtb1bqbh1","true","23","weiblich","rechts","Deutsch","","","null","","","","","","<div style=""font-size:60px;"">+</div>","fixation","","",""
"null","","html-keyboard-response","164","2.0.0","190325","q4f85mgtb1bqbh1","true","23","weiblich","rechts","Deutsch","","","null","","","","","","
      <img class=""person-img"" src=""https://raw.githubusercontent.com/saramff/face-recognition-images/refs/heads/master//women/woman_61.jpg"">
      <p class=""person-name"">Yara</p>
    ","","","",""
"null","","html-keyboard-response","165","2.0.0","191341","q4f85mgtb1bqbh1","true","23","weiblich","rechts","Deutsch","","","null","","","","","","<div style=""font-size:60px;"">+</div>","fixation","","",""
"null","","html-keyboard-response","166","2.0.0","192348","q4f85mgtb1bqbh1","true","23","weiblich","rechts","Deutsch","","","null","","","","","","
      <img class=""person-img"" src=""https://raw.githubusercontent.com/saramff/face-recognition-images/refs/heads/master//men/man_2.jpg"">
      <p class=""person-name"">Frank</p>
    ","","","",""
"null","","html-keyboard-response","167","2.0.0","193380","q4f85mgtb1bqbh1","true","23","weiblich","rechts","Deutsch","","","null","","","","","","<div style=""font-size:60px;"">+</div>","fixation","","",""
"null","","html-keyboard-response","168","2.0.0","194393","q4f85mgtb1bqbh1","true","23","weiblich","rechts","Deutsch","","","null","","","","","","
      <img class=""person-img"" src=""https://raw.githubusercontent.com/saramff/face-recognition-images/refs/heads/master//women/woman_86.jpg"">
      <p class=""person-name"">Rosalie</p>
    ","","","",""
"null","","html-keyboard-response","169","2.0.0","195398","q4f85mgtb1bqbh1","true","23","weiblich","rechts","Deutsch","","","null","","","","","","<div style=""font-size:60px;"">+</div>","fixation","","",""
"null","","html-keyboard-response","170","2.0.0","196415","q4f85mgtb1bqbh1","true","23","weiblich","rechts","Deutsch","","","null","","","","","","
      <img class=""person-img"" src=""https://raw.githubusercontent.com/saramff/face-recognition-images/refs/heads/master//women/woman_7.jpg"">
      <p class=""person-name"">Aurelia</p>
    ","","","",""
"null","","html-keyboard-response","171","2.0.0","197419","q4f85mgtb1bqbh1","true","23","weiblich","rechts","Deutsch","","","null","","","","","","<div style=""font-size:60px;"">+</div>","fixation","","",""
"null","","html-keyboard-response","172","2.0.0","198434","q4f85mgtb1bqbh1","true","23","weiblich","rechts","Deutsch","","","null","","","","","","
      <img class=""person-img"" src=""https://raw.githubusercontent.com/saramff/face-recognition-images/refs/heads/master//men/man_82.jpg"">
      <p class=""person-name"">Sebastian</p>
    ","","","",""
"null","","html-keyboard-response","173","2.0.0","199450","q4f85mgtb1bqbh1","true","23","weiblich","rechts","Deutsch","","","null","","","","","","<div style=""font-size:60px;"">+</div>","fixation","","",""
"null","","html-keyboard-response","174","2.0.0","200463","q4f85mgtb1bqbh1","true","23","weiblich","rechts","Deutsch","","","null","","","","","","
      <img class=""person-img"" src=""https://raw.githubusercontent.com/saramff/face-recognition-images/refs/heads/master//women/woman_71.jpg"">
      <p class=""person-name"">Amira</p>
    ","","","",""
"null","","html-keyboard-response","175","2.0.0","201481","q4f85mgtb1bqbh1","true","23","weiblich","rechts","Deutsch","","","null","","","","","","<div style=""font-size:60px;"">+</div>","fixation","","",""
"null","","html-keyboard-response","176","2.0.0","202485","q4f85mgtb1bqbh1","true","23","weiblich","rechts","Deutsch","","","null","","","","","","
      <img class=""person-img"" src=""https://raw.githubusercontent.com/saramff/face-recognition-images/refs/heads/master//women/woman_85.jpg"">
      <p class=""person-name"">Annalena</p>
    ","","","",""
"null","","html-keyboard-response","177","2.0.0","203504","q4f85mgtb1bqbh1","true","23","weiblich","rechts","Deutsch","","","null","","","","","","<div style=""font-size:60px;"">+</div>","fixation","","",""
"null","","html-keyboard-response","178","2.0.0","204520","q4f85mgtb1bqbh1","true","23","weiblich","rechts","Deutsch","","","null","","","","","","
      <img class=""person-img"" src=""https://raw.githubusercontent.com/saramff/face-recognition-images/refs/heads/master//men/man_45.jpg"">
      <p class=""person-name"">Dominik</p>
    ","","","",""
"null","","html-keyboard-response","179","2.0.0","205541","q4f85mgtb1bqbh1","true","23","weiblich","rechts","Deutsch","","","null","","","","","","<div style=""font-size:60px;"">+</div>","fixation","","",""
"null","","html-keyboard-response","180","2.0.0","206554","q4f85mgtb1bqbh1","true","23","weiblich","rechts","Deutsch","","","null","","","","","","
      <img class=""person-img"" src=""https://raw.githubusercontent.com/saramff/face-recognition-images/refs/heads/master//men/man_36.jpg"">
      <p class=""person-name"">Ren&eacute;</p>
    ","","","",""
"null","","html-keyboard-response","181","2.0.0","207572","q4f85mgtb1bqbh1","true","23","weiblich","rechts","Deutsch","","","null","","","","","","<div style=""font-size:60px;"">+</div>","fixation","","",""
"null","","html-keyboard-response","182","2.0.0","208590","q4f85mgtb1bqbh1","true","23","weiblich","rechts","Deutsch","","","null","","","","","","
      <img class=""person-img"" src=""https://raw.githubusercontent.com/saramff/face-recognition-images/refs/heads/master//women/woman_65.jpg"">
      <p class=""person-name"">Nora</p>
    ","","","",""
"null","","html-keyboard-response","183","2.0.0","209593","q4f85mgtb1bqbh1","true","23","weiblich","rechts","Deutsch","","","null","","","","","","<div style=""font-size:60px;"">+</div>","fixation","","",""
"null","","html-keyboard-response","184","2.0.0","210603","q4f85mgtb1bqbh1","true","23","weiblich","rechts","Deutsch","","","null","","","","","","
      <img class=""person-img"" src=""https://raw.githubusercontent.com/saramff/face-recognition-images/refs/heads/master//men/man_71.jpg"">
      <p class=""person-name"">Gereon</p>
    ","","","",""
"null","","html-keyboard-response","185","2.0.0","211626","q4f85mgtb1bqbh1","true","23","weiblich","rechts","Deutsch","","","null","","","","","","<div style=""font-size:60px;"">+</div>","fixation","","",""
"null","","html-keyboard-response","186","2.0.0","212642","q4f85mgtb1bqbh1","true","23","weiblich","rechts","Deutsch","","","null","","","","","","
      <img class=""person-img"" src=""https://raw.githubusercontent.com/saramff/face-recognition-images/refs/heads/master//men/man_79.jpg"">
      <p class=""person-name"">Ralf</p>
    ","","","",""
"null","","html-keyboard-response","187","2.0.0","213646","q4f85mgtb1bqbh1","true","23","weiblich","rechts","Deutsch","","","null","","","","","","<div style=""font-size:60px;"">+</div>","fixation","","",""
"null","","html-keyboard-response","188","2.0.0","214662","q4f85mgtb1bqbh1","true","23","weiblich","rechts","Deutsch","","","null","","","","","","
      <img class=""person-img"" src=""https://raw.githubusercontent.com/saramff/face-recognition-images/refs/heads/master//men/man_81.jpg"">
      <p class=""person-name"">Thorsten</p>
    ","","","",""
"null","","html-keyboard-response","189","2.0.0","215679","q4f85mgtb1bqbh1","true","23","weiblich","rechts","Deutsch","","","null","","","","","","<div style=""font-size:60px;"">+</div>","fixation","","",""
"null","","html-keyboard-response","190","2.0.0","216696","q4f85mgtb1bqbh1","true","23","weiblich","rechts","Deutsch","","","null","","","","","","
      <img class=""person-img"" src=""https://raw.githubusercontent.com/saramff/face-recognition-images/refs/heads/master//men/man_85.jpg"">
      <p class=""person-name"">Guido</p>
    ","","","",""
"null","","html-keyboard-response","191","2.0.0","217712","q4f85mgtb1bqbh1","true","23","weiblich","rechts","Deutsch","","","null","","","","","","<div style=""font-size:60px;"">+</div>","fixation","","",""
"null","","html-keyboard-response","192","2.0.0","218727","q4f85mgtb1bqbh1","true","23","weiblich","rechts","Deutsch","","","null","","","","","","
      <img class=""person-img"" src=""https://raw.githubusercontent.com/saramff/face-recognition-images/refs/heads/master//women/woman_52.jpg"">
      <p class=""person-name"">Pia</p>
    ","","","",""
"null","","html-keyboard-response","193","2.0.0","219749","q4f85mgtb1bqbh1","true","23","weiblich","rechts","Deutsch","","","null","","","","","","<div style=""font-size:60px;"">+</div>","fixation","","",""
"null","","html-keyboard-response","194","2.0.0","220759","q4f85mgtb1bqbh1","true","23","weiblich","rechts","Deutsch","","","null","","","","","","
      <img class=""person-img"" src=""https://raw.githubusercontent.com/saramff/face-recognition-images/refs/heads/master//men/man_93.jpg"">
      <p class=""person-name"">Axel</p>
    ","","","",""
"null","","html-keyboard-response","195","2.0.0","221768","q4f85mgtb1bqbh1","true","23","weiblich","rechts","Deutsch","","","null","","","","","","<div style=""font-size:60px;"">+</div>","fixation","","",""
"null","","html-keyboard-response","196","2.0.0","222784","q4f85mgtb1bqbh1","true","23","weiblich","rechts","Deutsch","","","null","","","","","","
      <img class=""person-img"" src=""https://raw.githubusercontent.com/saramff/face-recognition-images/refs/heads/master//women/woman_57.jpg"">
      <p class=""person-name"">Fiona</p>
    ","","","",""
"null","","html-keyboard-response","197","2.0.0","223800","q4f85mgtb1bqbh1","true","23","weiblich","rechts","Deutsch","","","null","","","","","","<div style=""font-size:60px;"">+</div>","fixation","","",""
"null","","html-keyboard-response","198","2.0.0","224803","q4f85mgtb1bqbh1","true","23","weiblich","rechts","Deutsch","","","null","","","","","","
      <img class=""person-img"" src=""https://raw.githubusercontent.com/saramff/face-recognition-images/refs/heads/master//men/man_43.jpg"">
      <p class=""person-name"">Konstantin</p>
    ","","","",""
"null","","html-keyboard-response","199","2.0.0","225820","q4f85mgtb1bqbh1","true","23","weiblich","rechts","Deutsch","","","null","","","","","","<div style=""font-size:60px;"">+</div>","fixation","","",""
"null","","html-keyboard-response","200","2.0.0","226836","q4f85mgtb1bqbh1","true","23","weiblich","rechts","Deutsch","","","null","","","","","","
      <img class=""person-img"" src=""https://raw.githubusercontent.com/saramff/face-recognition-images/refs/heads/master//women/woman_63.jpg"">
      <p class=""person-name"">Beate</p>
    ","","","",""
"null","","html-keyboard-response","201","2.0.0","227840","q4f85mgtb1bqbh1","true","23","weiblich","rechts","Deutsch","","","null","","","","","","<div style=""font-size:60px;"">+</div>","fixation","","",""
"null","","html-keyboard-response","202","2.0.0","228855","q4f85mgtb1bqbh1","true","23","weiblich","rechts","Deutsch","","","null","","","","","","
      <img class=""person-img"" src=""https://raw.githubusercontent.com/saramff/face-recognition-images/refs/heads/master//women/woman_35.jpg"">
      <p class=""person-name"">Tabea</p>
    ","","","",""
"null","","html-keyboard-response","203","2.0.0","229874","q4f85mgtb1bqbh1","true","23","weiblich","rechts","Deutsch","","","null","","","","","","<div style=""font-size:60px;"">+</div>","fixation","","",""
"null","","html-keyboard-response","204","2.0.0","230884","q4f85mgtb1bqbh1","true","23","weiblich","rechts","Deutsch","","","null","","","","","","
      <img class=""person-img"" src=""https://raw.githubusercontent.com/saramff/face-recognition-images/refs/heads/master//women/woman_83.jpg"">
      <p class=""person-name"">Sina</p>
    ","","","",""
"null","","html-keyboard-response","205","2.0.0","231897","q4f85mgtb1bqbh1","true","23","weiblich","rechts","Deutsch","","","null","","","","","","<div style=""font-size:60px;"">+</div>","fixation","","",""
"null","","html-keyboard-response","206","2.0.0","232909","q4f85mgtb1bqbh1","true","23","weiblich","rechts","Deutsch","","","null","","","","","","
      <img class=""person-img"" src=""https://raw.githubusercontent.com/saramff/face-recognition-images/refs/heads/master//men/man_8.jpg"">
      <p class=""person-name"">Andreas</p>
    ","","","",""
"null","","html-keyboard-response","207","2.0.0","233923","q4f85mgtb1bqbh1","true","23","weiblich","rechts","Deutsch","","","null","","","","","","<div style=""font-size:60px;"">+</div>","fixation","","",""
"null","","html-keyboard-response","208","2.0.0","234926","q4f85mgtb1bqbh1","true","23","weiblich","rechts","Deutsch","","","null","","","","","","
      <img class=""person-img"" src=""https://raw.githubusercontent.com/saramff/face-recognition-images/refs/heads/master//men/man_29.jpg"">
      <p class=""person-name"">Frederik</p>
    ","","","",""
"null","","html-keyboard-response","209","2.0.0","235941","q4f85mgtb1bqbh1","true","23","weiblich","rechts","Deutsch","","","null","","","","","","<div style=""font-size:60px;"">+</div>","fixation","","",""
"null","","html-keyboard-response","210","2.0.0","236952","q4f85mgtb1bqbh1","true","23","weiblich","rechts","Deutsch","","","null","","","","","","
      <img class=""person-img"" src=""https://raw.githubusercontent.com/saramff/face-recognition-images/refs/heads/master//men/man_60.jpg"">
      <p class=""person-name"">Raphael</p>
    ","","","",""
"null","","html-keyboard-response","211","2.0.0","237976","q4f85mgtb1bqbh1","true","23","weiblich","rechts","Deutsch","","","null","","","","","","<div style=""font-size:60px;"">+</div>","fixation","","",""
"null","","html-keyboard-response","212","2.0.0","238990","q4f85mgtb1bqbh1","true","23","weiblich","rechts","Deutsch","","","null","","","","","","
      <img class=""person-img"" src=""https://raw.githubusercontent.com/saramff/face-recognition-images/refs/heads/master//men/man_24.jpg"">
      <p class=""person-name"">Friedrich</p>
    ","","","",""
"null","","html-keyboard-response","213","2.0.0","240008","q4f85mgtb1bqbh1","true","23","weiblich","rechts","Deutsch","","","null","","","","","","<div style=""font-size:60px;"">+</div>","fixation","","",""
"null","","html-keyboard-response","214","2.0.0","241014","q4f85mgtb1bqbh1","true","23","weiblich","rechts","Deutsch","","","null","","","","","","
      <img class=""person-img"" src=""https://raw.githubusercontent.com/saramff/face-recognition-images/refs/heads/master//women/woman_3.jpg"">
      <p class=""person-name"">Sabrina</p>
    ","","","",""
"null","","html-keyboard-response","215","2.0.0","242031","q4f85mgtb1bqbh1","true","23","weiblich","rechts","Deutsch","","","null","","","","","","<div style=""font-size:60px;"">+</div>","fixation","","",""
"null","","html-keyboard-response","216","2.0.0","243047","q4f85mgtb1bqbh1","true","23","weiblich","rechts","Deutsch","","","null","","","","","","
      <img class=""person-img"" src=""https://raw.githubusercontent.com/saramff/face-recognition-images/refs/heads/master//men/man_66.jpg"">
      <p class=""person-name"">Jens</p>
    ","","","",""
"null","","html-keyboard-response","217","2.0.0","244067","q4f85mgtb1bqbh1","true","23","weiblich","rechts","Deutsch","","","null","","","","","","<div style=""font-size:60px;"">+</div>","fixation","","",""
"null","","html-keyboard-response","218","2.0.0","245073","q4f85mgtb1bqbh1","true","23","weiblich","rechts","Deutsch","","","null","","","","","","
      <img class=""person-img"" src=""https://raw.githubusercontent.com/saramff/face-recognition-images/refs/heads/master//men/man_48.jpg"">
      <p class=""person-name"">Leon</p>
    ","","","",""
"null","","html-keyboard-response","219","2.0.0","246085","q4f85mgtb1bqbh1","true","23","weiblich","rechts","Deutsch","","","null","","","","","","<div style=""font-size:60px;"">+</div>","fixation","","",""
"null","","html-keyboard-response","220","2.0.0","247101","q4f85mgtb1bqbh1","true","23","weiblich","rechts","Deutsch","","","null","","","","","","
      <img class=""person-img"" src=""https://raw.githubusercontent.com/saramff/face-recognition-images/refs/heads/master//men/man_20.jpg"">
      <p class=""person-name"">Noah</p>
    ","","","",""
"null","","html-keyboard-response","221","2.0.0","248118","q4f85mgtb1bqbh1","true","23","weiblich","rechts","Deutsch","","","null","","","","","","<div style=""font-size:60px;"">+</div>","fixation","","",""
"null","","html-keyboard-response","222","2.0.0","249135","q4f85mgtb1bqbh1","true","23","weiblich","rechts","Deutsch","","","null","","","","","","
      <img class=""person-img"" src=""https://raw.githubusercontent.com/saramff/face-recognition-images/refs/heads/master//women/woman_22.jpg"">
      <p class=""person-name"">Ella</p>
    ","","","",""
"null","","html-keyboard-response","223","2.0.0","250149","q4f85mgtb1bqbh1","true","23","weiblich","rechts","Deutsch","","","null","","","","","","<div style=""font-size:60px;"">+</div>","fixation","","",""
"null","","html-keyboard-response","224","2.0.0","251154","q4f85mgtb1bqbh1","true","23","weiblich","rechts","Deutsch","","","null","","","","","","
      <img class=""person-img"" src=""https://raw.githubusercontent.com/saramff/face-recognition-images/refs/heads/master//men/man_63.jpg"">
      <p class=""person-name"">Tobias</p>
    ","","","",""
"null","","html-keyboard-response","225","2.0.0","252169","q4f85mgtb1bqbh1","true","23","weiblich","rechts","Deutsch","","","null","","","","","","<div style=""font-size:60px;"">+</div>","fixation","","",""
"null","","html-keyboard-response","226","2.0.0","253172","q4f85mgtb1bqbh1","true","23","weiblich","rechts","Deutsch","","","null","","","","","","
      <img class=""person-img"" src=""https://raw.githubusercontent.com/saramff/face-recognition-images/refs/heads/master//men/man_54.jpg"">
      <p class=""person-name"">Marius</p>
    ","","","",""
"null","","html-keyboard-response","227","2.0.0","254187","q4f85mgtb1bqbh1","true","23","weiblich","rechts","Deutsch","","","null","","","","","","<div style=""font-size:60px;"">+</div>","fixation","","",""
"null","","html-keyboard-response","228","2.0.0","255202","q4f85mgtb1bqbh1","true","23","weiblich","rechts","Deutsch","","","null","","","","","","
      <img class=""person-img"" src=""https://raw.githubusercontent.com/saramff/face-recognition-images/refs/heads/master//women/woman_81.jpg"">
      <p class=""person-name"">Malou</p>
    ","","","",""
"null","","html-keyboard-response","229","2.0.0","256222","q4f85mgtb1bqbh1","true","23","weiblich","rechts","Deutsch","","","null","","","","","","<div style=""font-size:60px;"">+</div>","fixation","","",""
"null","","html-keyboard-response","230","2.0.0","257239","q4f85mgtb1bqbh1","true","23","weiblich","rechts","Deutsch","","","null","","","","","","
      <img class=""person-img"" src=""https://raw.githubusercontent.com/saramff/face-recognition-images/refs/heads/master//men/man_49.jpg"">
      <p class=""person-name"">Ingo</p>
    ","","","",""
"null","","html-keyboard-response","231","2.0.0","258257","q4f85mgtb1bqbh1","true","23","weiblich","rechts","Deutsch","","","null","","","","","","<div style=""font-size:60px;"">+</div>","fixation","","",""
"null","","html-keyboard-response","232","2.0.0","259274","q4f85mgtb1bqbh1","true","23","weiblich","rechts","Deutsch","","","null","","","","","","
      <img class=""person-img"" src=""https://raw.githubusercontent.com/saramff/face-recognition-images/refs/heads/master//men/man_44.jpg"">
      <p class=""person-name"">Paul</p>
    ","","","",""
"null","","html-keyboard-response","233","2.0.0","260292","q4f85mgtb1bqbh1","true","23","weiblich","rechts","Deutsch","","","null","","","","","","<div style=""font-size:60px;"">+</div>","fixation","","",""
"null","","html-keyboard-response","234","2.0.0","261306","q4f85mgtb1bqbh1","true","23","weiblich","rechts","Deutsch","","","null","","","","","","
      <img class=""person-img"" src=""https://raw.githubusercontent.com/saramff/face-recognition-images/refs/heads/master//men/man_52.jpg"">
      <p class=""person-name"">Volker</p>
    ","","","",""
"null","","html-keyboard-response","235","2.0.0","262327","q4f85mgtb1bqbh1","true","23","weiblich","rechts","Deutsch","","","null","","","","","","<div style=""font-size:60px;"">+</div>","fixation","","",""
"null","","html-keyboard-response","236","2.0.0","263330","q4f85mgtb1bqbh1","true","23","weiblich","rechts","Deutsch","","","null","","","","","","
      <img class=""person-img"" src=""https://raw.githubusercontent.com/saramff/face-recognition-images/refs/heads/master//women/woman_29.jpg"">
      <p class=""person-name"">Antonia</p>
    ","","","",""
"null","","html-keyboard-response","237","2.0.0","264349","q4f85mgtb1bqbh1","true","23","weiblich","rechts","Deutsch","","","null","","","","","","<div style=""font-size:60px;"">+</div>","fixation","","",""
"null","","html-keyboard-response","238","2.0.0","265357","q4f85mgtb1bqbh1","true","23","weiblich","rechts","Deutsch","","","null","","","","","","
      <img class=""person-img"" src=""https://raw.githubusercontent.com/saramff/face-recognition-images/refs/heads/master//men/man_84.jpg"">
      <p class=""person-name"">Marcel</p>
    ","","","",""
"null","","html-keyboard-response","239","2.0.0","266370","q4f85mgtb1bqbh1","true","23","weiblich","rechts","Deutsch","","","null","","","","","","<div style=""font-size:60px;"">+</div>","fixation","","",""
"null","","html-keyboard-response","240","2.0.0","267383","q4f85mgtb1bqbh1","true","23","weiblich","rechts","Deutsch","","","null","","","","","","
      <img class=""person-img"" src=""https://raw.githubusercontent.com/saramff/face-recognition-images/refs/heads/master//men/man_4.jpg"">
      <p class=""person-name"">Fabian</p>
    ","","","",""
"null","","html-keyboard-response","241","2.0.0","268398","q4f85mgtb1bqbh1","true","23","weiblich","rechts","Deutsch","","","null","","","","","","<div style=""font-size:60px;"">+</div>","fixation","","",""
"null","","html-keyboard-response","242","2.0.0","269400","q4f85mgtb1bqbh1","true","23","weiblich","rechts","Deutsch","","","null","","","","","","
      <img class=""person-img"" src=""https://raw.githubusercontent.com/saramff/face-recognition-images/refs/heads/master//women/woman_31.jpg"">
      <p class=""person-name"">Alina</p>
    ","","","",""
"null","","html-keyboard-response","243","2.0.0","270418","q4f85mgtb1bqbh1","true","23","weiblich","rechts","Deutsch","","","null","","","","","","<div style=""font-size:60px;"">+</div>","fixation","","",""
"null","","html-keyboard-response","244","2.0.0","271429","q4f85mgtb1bqbh1","true","23","weiblich","rechts","Deutsch","","","null","","","","","","
      <img class=""person-img"" src=""https://raw.githubusercontent.com/saramff/face-recognition-images/refs/heads/master//women/woman_23.jpg"">
      <p class=""person-name"">Karlotta</p>
    ","","","",""
"null","","html-keyboard-response","245","2.0.0","272451","q4f85mgtb1bqbh1","true","23","weiblich","rechts","Deutsch","","","null","","","","","","<div style=""font-size:60px;"">+</div>","fixation","","",""
"null","","html-keyboard-response","246","2.0.0","273463","q4f85mgtb1bqbh1","true","23","weiblich","rechts","Deutsch","","","null","","","","","","
      <img class=""person-img"" src=""https://raw.githubusercontent.com/saramff/face-recognition-images/refs/heads/master//men/man_61.jpg"">
      <p class=""person-name"">Anton</p>
    ","","","",""
"null","","html-keyboard-response","247","2.0.0","274470","q4f85mgtb1bqbh1","true","23","weiblich","rechts","Deutsch","","","null","","","","","","<div style=""font-size:60px;"">+</div>","fixation","","",""
"null","","html-keyboard-response","248","2.0.0","275471","q4f85mgtb1bqbh1","true","23","weiblich","rechts","Deutsch","","","null","","","","","","
      <img class=""person-img"" src=""https://raw.githubusercontent.com/saramff/face-recognition-images/refs/heads/master//men/man_92.jpg"">
      <p class=""person-name"">Emil</p>
    ","","","",""
"null","","html-keyboard-response","249","2.0.0","276488","q4f85mgtb1bqbh1","true","23","weiblich","rechts","Deutsch","","","null","","","","","","<div style=""font-size:60px;"">+</div>","fixation","","",""
"null","","html-keyboard-response","250","2.0.0","277493","q4f85mgtb1bqbh1","true","23","weiblich","rechts","Deutsch","","","null","","","","","","
      <img class=""person-img"" src=""https://raw.githubusercontent.com/saramff/face-recognition-images/refs/heads/master//women/woman_5.jpg"">
      <p class=""person-name"">Marta</p>
    ","","","",""
"null","","html-keyboard-response","251","2.0.0","278508","q4f85mgtb1bqbh1","true","23","weiblich","rechts","Deutsch","","","null","","","","","","<div style=""font-size:60px;"">+</div>","fixation","","",""
"null","","html-keyboard-response","252","2.0.0","279511","q4f85mgtb1bqbh1","true","23","weiblich","rechts","Deutsch","","","null","","","","","","
      <img class=""person-img"" src=""https://raw.githubusercontent.com/saramff/face-recognition-images/refs/heads/master//women/woman_30.jpg"">
      <p class=""person-name"">Lilly</p>
    ","","","",""
"null","","html-keyboard-response","253","2.0.0","280526","q4f85mgtb1bqbh1","true","23","weiblich","rechts","Deutsch","","","null","","","","","","<div style=""font-size:60px;"">+</div>","fixation","","",""
"null","","html-keyboard-response","254","2.0.0","281531","q4f85mgtb1bqbh1","true","23","weiblich","rechts","Deutsch","","","null","","","","","","
      <img class=""person-img"" src=""https://raw.githubusercontent.com/saramff/face-recognition-images/refs/heads/master//women/woman_49.jpg"">
      <p class=""person-name"">Hannah</p>
    ","","","",""
"null","","html-keyboard-response","255","2.0.0","282542","q4f85mgtb1bqbh1","true","23","weiblich","rechts","Deutsch","","","null","","","","","","<div style=""font-size:60px;"">+</div>","fixation","","",""
"null","","html-keyboard-response","256","2.0.0","283546","q4f85mgtb1bqbh1","true","23","weiblich","rechts","Deutsch","","","null","","","","","","
      <img class=""person-img"" src=""https://raw.githubusercontent.com/saramff/face-recognition-images/refs/heads/master//women/woman_59.jpg"">
      <p class=""person-name"">Carolin</p>
    ","","","",""
"null","","html-keyboard-response","257","2.0.0","284562","q4f85mgtb1bqbh1","true","23","weiblich","rechts","Deutsch","","","null","","","","","","<div style=""font-size:60px;"">+</div>","fixation","","",""
"null","","html-keyboard-response","258","2.0.0","285564","q4f85mgtb1bqbh1","true","23","weiblich","rechts","Deutsch","","","null","","","","","","
      <img class=""person-img"" src=""https://raw.githubusercontent.com/saramff/face-recognition-images/refs/heads/master//men/man_78.jpg"">
      <p class=""person-name"">Theodor</p>
    ","","","",""
"null","","html-keyboard-response","259","2.0.0","286583","q4f85mgtb1bqbh1","true","23","weiblich","rechts","Deutsch","","","null","","","","","","<div style=""font-size:60px;"">+</div>","fixation","","",""
"null","","html-keyboard-response","260","2.0.0","287599","q4f85mgtb1bqbh1","true","23","weiblich","rechts","Deutsch","","","null","","","","","","
      <img class=""person-img"" src=""https://raw.githubusercontent.com/saramff/face-recognition-images/refs/heads/master//men/man_26.jpg"">
      <p class=""person-name"">Florian</p>
    ","","","",""
"null","","html-keyboard-response","261","2.0.0","288617","q4f85mgtb1bqbh1","true","23","weiblich","rechts","Deutsch","","","null","","","","","","<div style=""font-size:60px;"">+</div>","fixation","","",""
"null","","html-keyboard-response","262","2.0.0","289624","q4f85mgtb1bqbh1","true","23","weiblich","rechts","Deutsch","","","null","","","","","","
      <img class=""person-img"" src=""https://raw.githubusercontent.com/saramff/face-recognition-images/refs/heads/master//men/man_96.jpg"">
      <p class=""person-name"">Eugen</p>
    ","","","",""
"null","","html-keyboard-response","263","2.0.0","290633","q4f85mgtb1bqbh1","true","23","weiblich","rechts","Deutsch","","","null","","","","","","<div style=""font-size:60px;"">+</div>","fixation","","",""
"null","","html-keyboard-response","264","2.0.0","291638","q4f85mgtb1bqbh1","true","23","weiblich","rechts","Deutsch","","","null","","","","","","
      <img class=""person-img"" src=""https://raw.githubusercontent.com/saramff/face-recognition-images/refs/heads/master//men/man_12.jpg"">
      <p class=""person-name"">Ben</p>
    ","","","",""
"null","","html-keyboard-response","265","2.0.0","292653","q4f85mgtb1bqbh1","true","23","weiblich","rechts","Deutsch","","","null","","","","","","<div style=""font-size:60px;"">+</div>","fixation","","",""
"null","","html-keyboard-response","266","2.0.0","293665","q4f85mgtb1bqbh1","true","23","weiblich","rechts","Deutsch","","","null","","","","","","
      <img class=""person-img"" src=""https://raw.githubusercontent.com/saramff/face-recognition-images/refs/heads/master//women/woman_78.jpg"">
      <p class=""person-name"">Annika</p>
    ","","","",""
"null","","html-keyboard-response","267","2.0.0","294684","q4f85mgtb1bqbh1","true","23","weiblich","rechts","Deutsch","","","null","","","","","","<div style=""font-size:60px;"">+</div>","fixation","","",""
"null","","html-keyboard-response","268","2.0.0","295688","q4f85mgtb1bqbh1","true","23","weiblich","rechts","Deutsch","","","null","","","","","","
      <img class=""person-img"" src=""https://raw.githubusercontent.com/saramff/face-recognition-images/refs/heads/master//men/man_14.jpg"">
      <p class=""person-name"">Manuel</p>
    ","","","",""
"null","","html-keyboard-response","269","2.0.0","296704","q4f85mgtb1bqbh1","true","23","weiblich","rechts","Deutsch","","","null","","","","","","<div style=""font-size:60px;"">+</div>","fixation","","",""
"null","","html-keyboard-response","270","2.0.0","297719","q4f85mgtb1bqbh1","true","23","weiblich","rechts","Deutsch","","","null","","","","","","
      <img class=""person-img"" src=""https://raw.githubusercontent.com/saramff/face-recognition-images/refs/heads/master//women/woman_16.jpg"">
      <p class=""person-name"">Alma</p>
    ","","","",""
"null","","html-keyboard-response","271","2.0.0","298737","q4f85mgtb1bqbh1","true","23","weiblich","rechts","Deutsch","","","null","","","","","","<div style=""font-size:60px;"">+</div>","fixation","","",""
"null","","html-keyboard-response","272","2.0.0","299740","q4f85mgtb1bqbh1","true","23","weiblich","rechts","Deutsch","","","null","","","","","","
      <img class=""person-img"" src=""https://raw.githubusercontent.com/saramff/face-recognition-images/refs/heads/master//women/woman_91.jpg"">
      <p class=""person-name"">Svenja</p>
    ","","","",""
"null","","html-keyboard-response","273","2.0.0","300757","q4f85mgtb1bqbh1","true","23","weiblich","rechts","Deutsch","","","null","","","","","","<div style=""font-size:60px;"">+</div>","fixation","","",""
"null","","html-keyboard-response","274","2.0.0","301760","q4f85mgtb1bqbh1","true","23","weiblich","rechts","Deutsch","","","null","","","","","","
      <img class=""person-img"" src=""https://raw.githubusercontent.com/saramff/face-recognition-images/refs/heads/master//women/woman_66.jpg"">
      <p class=""person-name"">Josephine</p>
    ","","","",""
"null","","html-keyboard-response","275","2.0.0","302778","q4f85mgtb1bqbh1","true","23","weiblich","rechts","Deutsch","","","null","","","","","","<div style=""font-size:60px;"">+</div>","fixation","","",""
"null","","html-keyboard-response","276","2.0.0","303782","q4f85mgtb1bqbh1","true","23","weiblich","rechts","Deutsch","","","null","","","","","","
      <img class=""person-img"" src=""https://raw.githubusercontent.com/saramff/face-recognition-images/refs/heads/master//women/woman_28.jpg"">
      <p class=""person-name"">Katharina</p>
    ","","","",""
"null","","html-keyboard-response","277","2.0.0","304805","q4f85mgtb1bqbh1","true","23","weiblich","rechts","Deutsch","","","null","","","","","","<div style=""font-size:60px;"">+</div>","fixation","","",""
"null","","html-keyboard-response","278","2.0.0","305808","q4f85mgtb1bqbh1","true","23","weiblich","rechts","Deutsch","","","null","","","","","","
      <img class=""person-img"" src=""https://raw.githubusercontent.com/saramff/face-recognition-images/refs/heads/master//women/woman_33.jpg"">
      <p class=""person-name"">Helena</p>
    ","","","",""
"null","","html-keyboard-response","279","2.0.0","306827","q4f85mgtb1bqbh1","true","23","weiblich","rechts","Deutsch","","","null","","","","","","<div style=""font-size:60px;"">+</div>","fixation","","",""
"null","","html-keyboard-response","280","2.0.0","307843","q4f85mgtb1bqbh1","true","23","weiblich","rechts","Deutsch","","","null","","","","","","
      <img class=""person-img"" src=""https://raw.githubusercontent.com/saramff/face-recognition-images/refs/heads/master//women/woman_79.jpg"">
      <p class=""person-name"">Henni</p>
    ","","","",""
"null","","html-keyboard-response","281","2.0.0","308864","q4f85mgtb1bqbh1","true","23","weiblich","rechts","Deutsch","","","null","","","","","","<div style=""font-size:60px;"">+</div>","fixation","","",""
"null","","html-keyboard-response","282","2.0.0","309878","q4f85mgtb1bqbh1","true","23","weiblich","rechts","Deutsch","","","null","","","","","","
      <img class=""person-img"" src=""https://raw.githubusercontent.com/saramff/face-recognition-images/refs/heads/master//women/woman_42.jpg"">
      <p class=""person-name"">Leonie</p>
    ","","","",""
"null","","html-keyboard-response","283","2.0.0","310896","q4f85mgtb1bqbh1","true","23","weiblich","rechts","Deutsch","","","null","","","","","","<div style=""font-size:60px;"">+</div>","fixation","","",""
"null","","html-keyboard-response","284","2.0.0","311911","q4f85mgtb1bqbh1","true","23","weiblich","rechts","Deutsch","","","null","","","","","","
      <img class=""person-img"" src=""https://raw.githubusercontent.com/saramff/face-recognition-images/refs/heads/master//women/woman_8.jpg"">
      <p class=""person-name"">Marla</p>
    ","","","",""
"null","","html-keyboard-response","285","2.0.0","312933","q4f85mgtb1bqbh1","true","23","weiblich","rechts","Deutsch","","","null","","","","","","<div style=""font-size:60px;"">+</div>","fixation","","",""
"null","","html-keyboard-response","286","2.0.0","313946","q4f85mgtb1bqbh1","true","23","weiblich","rechts","Deutsch","","","null","","","","","","
      <img class=""person-img"" src=""https://raw.githubusercontent.com/saramff/face-recognition-images/refs/heads/master//men/man_67.jpg"">
      <p class=""person-name"">Olaf</p>
    ","","","",""
"null","","html-keyboard-response","287","2.0.0","314947","q4f85mgtb1bqbh1","true","23","weiblich","rechts","Deutsch","","","null","","","","","","<div style=""font-size:60px;"">+</div>","fixation","","",""
"null","","html-keyboard-response","288","2.0.0","315949","q4f85mgtb1bqbh1","true","23","weiblich","rechts","Deutsch","","","null","","","","","","
      <img class=""person-img"" src=""https://raw.githubusercontent.com/saramff/face-recognition-images/refs/heads/master//women/woman_94.jpg"">
      <p class=""person-name"">Beate</p>
    ","","","",""
"null","","html-keyboard-response","289","2.0.0","316967","q4f85mgtb1bqbh1","true","23","weiblich","rechts","Deutsch","","","null","","","","","","<div style=""font-size:60px;"">+</div>","fixation","","",""
"null","","html-keyboard-response","290","2.0.0","317983","q4f85mgtb1bqbh1","true","23","weiblich","rechts","Deutsch","","","null","","","","","","
      <img class=""person-img"" src=""https://raw.githubusercontent.com/saramff/face-recognition-images/refs/heads/master//women/woman_56.jpg"">
      <p class=""person-name"">Anouk</p>
    ","","","",""
"null","","html-keyboard-response","291","2.0.0","318998","q4f85mgtb1bqbh1","true","23","weiblich","rechts","Deutsch","","","null","","","","","","<div style=""font-size:60px;"">+</div>","fixation","","",""
"null","","html-keyboard-response","292","2.0.0","320002","q4f85mgtb1bqbh1","true","23","weiblich","rechts","Deutsch","","","null","","","","","","
      <img class=""person-img"" src=""https://raw.githubusercontent.com/saramff/face-recognition-images/refs/heads/master//women/woman_20.jpg"">
      <p class=""person-name"">Livia</p>
    ","","","",""
"null","","html-keyboard-response","293","2.0.0","321016","q4f85mgtb1bqbh1","true","23","weiblich","rechts","Deutsch","","","null","","","","","","<div style=""font-size:60px;"">+</div>","fixation","","",""
"null","","html-keyboard-response","294","2.0.0","322033","q4f85mgtb1bqbh1","true","23","weiblich","rechts","Deutsch","","","null","","","","","","
      <img class=""person-img"" src=""https://raw.githubusercontent.com/saramff/face-recognition-images/refs/heads/master//men/man_72.jpg"">
      <p class=""person-name"">Kilian</p>
    ","","","",""
"null","","html-keyboard-response","295","2.0.0","323038","q4f85mgtb1bqbh1","true","23","weiblich","rechts","Deutsch","","","null","","","","","","<div style=""font-size:60px;"">+</div>","fixation","","",""
"null","","html-keyboard-response","296","2.0.0","324054","q4f85mgtb1bqbh1","true","23","weiblich","rechts","Deutsch","","","null","","","","","","
      <img class=""person-img"" src=""https://raw.githubusercontent.com/saramff/face-recognition-images/refs/heads/master//women/woman_2.jpg"">
      <p class=""person-name"">Freya</p>
    ","","","",""
"null","","html-keyboard-response","297","2.0.0","325069","q4f85mgtb1bqbh1","true","23","weiblich","rechts","Deutsch","","","null","","","","","","<div style=""font-size:60px;"">+</div>","fixation","","",""
"null","","html-keyboard-response","298","2.0.0","326072","q4f85mgtb1bqbh1","true","23","weiblich","rechts","Deutsch","","","null","","","","","","
      <img class=""person-img"" src=""https://raw.githubusercontent.com/saramff/face-recognition-images/refs/heads/master//women/woman_6.jpg"">
      <p class=""person-name"">Lea</p>
    ","","","",""
"null","","html-keyboard-response","299","2.0.0","327091","q4f85mgtb1bqbh1","true","23","weiblich","rechts","Deutsch","","","null","","","","","","<div style=""font-size:60px;"">+</div>","fixation","","",""
"null","","html-keyboard-response","300","2.0.0","328107","q4f85mgtb1bqbh1","true","23","weiblich","rechts","Deutsch","","","null","","","","","","
      <img class=""person-img"" src=""https://raw.githubusercontent.com/saramff/face-recognition-images/refs/heads/master//men/man_6.jpg"">
      <p class=""person-name"">Tim</p>
    ","","","",""
"null","","html-keyboard-response","301","2.0.0","329123","q4f85mgtb1bqbh1","true","23","weiblich","rechts","Deutsch","","","null","","","","","","<div style=""font-size:60px;"">+</div>","fixation","","",""
"null","","html-keyboard-response","302","2.0.0","330139","q4f85mgtb1bqbh1","true","23","weiblich","rechts","Deutsch","","","null","","","","","","
      <img class=""person-img"" src=""https://raw.githubusercontent.com/saramff/face-recognition-images/refs/heads/master//women/woman_9.jpg"">
      <p class=""person-name"">Carla</p>
    ","","","",""
"null","","html-keyboard-response","303","2.0.0","331161","q4f85mgtb1bqbh1","true","23","weiblich","rechts","Deutsch","","","null","","","","","","<div style=""font-size:60px;"">+</div>","fixation","","",""
"null","","html-keyboard-response","304","2.0.0","332170","q4f85mgtb1bqbh1","true","23","weiblich","rechts","Deutsch","","","null","","","","","","
      <img class=""person-img"" src=""https://raw.githubusercontent.com/saramff/face-recognition-images/refs/heads/master//women/woman_24.jpg"">
      <p class=""person-name"">Johanna</p>
    ","","","",""
"null","","html-keyboard-response","305","2.0.0","333201","q4f85mgtb1bqbh1","true","23","weiblich","rechts","Deutsch","","","null","","","","","","<div style=""font-size:60px;"">+</div>","fixation","","",""
"null","","html-keyboard-response","306","2.0.0","334209","q4f85mgtb1bqbh1","true","23","weiblich","rechts","Deutsch","","","null","","","","","","
      <img class=""person-img"" src=""https://raw.githubusercontent.com/saramff/face-recognition-images/refs/heads/master//men/man_5.jpg"">
      <p class=""person-name"">Udo</p>
    ","","","",""
"null","","html-keyboard-response","307","2.0.0","335227","q4f85mgtb1bqbh1","true","23","weiblich","rechts","Deutsch","","","null","","","","","","<div style=""font-size:60px;"">+</div>","fixation","","",""
"null","","html-keyboard-response","308","2.0.0","336245","q4f85mgtb1bqbh1","true","23","weiblich","rechts","Deutsch","","","null","","","","","","
      <img class=""person-img"" src=""https://raw.githubusercontent.com/saramff/face-recognition-images/refs/heads/master//men/man_17.jpg"">
      <p class=""person-name"">Simon</p>
    ","","","",""
"null","","html-keyboard-response","309","2.0.0","337264","q4f85mgtb1bqbh1","true","23","weiblich","rechts","Deutsch","","","null","","","","","","<div style=""font-size:60px;"">+</div>","fixation","","",""
"null","","html-keyboard-response","310","2.0.0","338281","q4f85mgtb1bqbh1","true","23","weiblich","rechts","Deutsch","","","null","","","","","","
      <img class=""person-img"" src=""https://raw.githubusercontent.com/saramff/face-recognition-images/refs/heads/master//women/woman_10.jpg"">
      <p class=""person-name"">Frauke</p>
    ","","","",""
"null","","html-keyboard-response","311","2.0.0","339296","q4f85mgtb1bqbh1","true","23","weiblich","rechts","Deutsch","","","null","","","","","","<div style=""font-size:60px;"">+</div>","fixation","","",""
"null","","html-keyboard-response","312","2.0.0","340310","q4f85mgtb1bqbh1","true","23","weiblich","rechts","Deutsch","","","null","","","","","","
      <img class=""person-img"" src=""https://raw.githubusercontent.com/saramff/face-recognition-images/refs/heads/master//women/woman_50.jpg"">
      <p class=""person-name"">Julia</p>
    ","","","",""
"null","","html-keyboard-response","313","2.0.0","341316","q4f85mgtb1bqbh1","true","23","weiblich","rechts","Deutsch","","","null","","","","","","<div style=""font-size:60px;"">+</div>","fixation","","",""
"null","","html-keyboard-response","314","2.0.0","342330","q4f85mgtb1bqbh1","true","23","weiblich","rechts","Deutsch","","","null","","","","","","
      <img class=""person-img"" src=""https://raw.githubusercontent.com/saramff/face-recognition-images/refs/heads/master//women/woman_74.jpg"">
      <p class=""person-name"">Eva</p>
    ","","","",""
"null","","html-keyboard-response","315","2.0.0","343348","q4f85mgtb1bqbh1","true","23","weiblich","rechts","Deutsch","","","null","","","","","","<div style=""font-size:60px;"">+</div>","fixation","","",""
"null","","html-keyboard-response","316","2.0.0","344351","q4f85mgtb1bqbh1","true","23","weiblich","rechts","Deutsch","","","null","","","","","","
      <img class=""person-img"" src=""https://raw.githubusercontent.com/saramff/face-recognition-images/refs/heads/master//men/man_95.jpg"">
      <p class=""person-name"">Joel</p>
    ","","","",""
"null","","html-keyboard-response","317","2.0.0","345370","q4f85mgtb1bqbh1","true","23","weiblich","rechts","Deutsch","","","null","","","","","","<div style=""font-size:60px;"">+</div>","fixation","","",""
"null","","html-keyboard-response","318","2.0.0","346386","q4f85mgtb1bqbh1","true","23","weiblich","rechts","Deutsch","","","null","","","","","","
      <img class=""person-img"" src=""https://raw.githubusercontent.com/saramff/face-recognition-images/refs/heads/master//women/woman_12.jpg"">
      <p class=""person-name"">Theresa</p>
    ","","","",""
"null","","html-keyboard-response","319","2.0.0","347406","q4f85mgtb1bqbh1","true","23","weiblich","rechts","Deutsch","","","null","","","","","","<div style=""font-size:60px;"">+</div>","fixation","","",""
"null","","html-keyboard-response","320","2.0.0","348418","q4f85mgtb1bqbh1","true","23","weiblich","rechts","Deutsch","","","null","","","","","","
      <img class=""person-img"" src=""https://raw.githubusercontent.com/saramff/face-recognition-images/refs/heads/master//women/woman_82.jpg"">
      <p class=""person-name"">Carina</p>
    ","","","",""
"null","","html-keyboard-response","321","2.0.0","349437","q4f85mgtb1bqbh1","true","23","weiblich","rechts","Deutsch","","","null","","","","","","<div style=""font-size:60px;"">+</div>","fixation","","",""
"null","","html-keyboard-response","322","2.0.0","350440","q4f85mgtb1bqbh1","true","23","weiblich","rechts","Deutsch","","","null","","","","","","
      <img class=""person-img"" src=""https://raw.githubusercontent.com/saramff/face-recognition-images/refs/heads/master//women/woman_60.jpg"">
      <p class=""person-name"">Ronja</p>
    ","","","",""
"null","","html-keyboard-response","323","2.0.0","351457","q4f85mgtb1bqbh1","true","23","weiblich","rechts","Deutsch","","","null","","","","","","<div style=""font-size:60px;"">+</div>","fixation","","",""
"null","","html-keyboard-response","324","2.0.0","352474","q4f85mgtb1bqbh1","true","23","weiblich","rechts","Deutsch","","","null","","","","","","
      <img class=""person-img"" src=""https://raw.githubusercontent.com/saramff/face-recognition-images/refs/heads/master//men/man_83.jpg"">
      <p class=""person-name"">Patrick</p>
    ","","","",""
"null","","html-keyboard-response","325","2.0.0","353476","q4f85mgtb1bqbh1","true","23","weiblich","rechts","Deutsch","","","null","","","","","","<div style=""font-size:60px;"">+</div>","fixation","","",""
"null","","html-keyboard-response","326","2.0.0","354492","q4f85mgtb1bqbh1","true","23","weiblich","rechts","Deutsch","","","null","","","","","","
      <img class=""person-img"" src=""https://raw.githubusercontent.com/saramff/face-recognition-images/refs/heads/master//men/man_35.jpg"">
      <p class=""person-name"">Artur</p>
    ","","","",""
"null","","html-keyboard-response","327","2.0.0","355520","q4f85mgtb1bqbh1","true","23","weiblich","rechts","Deutsch","","","null","","","","","","<div style=""font-size:60px;"">+</div>","fixation","","",""
"null","","html-keyboard-response","328","2.0.0","356538","q4f85mgtb1bqbh1","true","23","weiblich","rechts","Deutsch","","","null","","","","","","
      <img class=""person-img"" src=""https://raw.githubusercontent.com/saramff/face-recognition-images/refs/heads/master//women/woman_19.jpg"">
      <p class=""person-name"">Jasmin</p>
    ","","","",""
"null","","html-keyboard-response","329","2.0.0","357557","q4f85mgtb1bqbh1","true","23","weiblich","rechts","Deutsch","","","null","","","","","","<div style=""font-size:60px;"">+</div>","fixation","","",""
"null","","html-keyboard-response","330","2.0.0","358561","q4f85mgtb1bqbh1","true","23","weiblich","rechts","Deutsch","","","null","","","","","","
      <img class=""person-img"" src=""https://raw.githubusercontent.com/saramff/face-recognition-images/refs/heads/master//men/man_23.jpg"">
      <p class=""person-name"">Alexander</p>
    ","","","",""
"null","","html-keyboard-response","331","2.0.0","359577","q4f85mgtb1bqbh1","true","23","weiblich","rechts","Deutsch","","","null","","","","","","<div style=""font-size:60px;"">+</div>","fixation","","",""
"null","","html-keyboard-response","332","2.0.0","360580","q4f85mgtb1bqbh1","true","23","weiblich","rechts","Deutsch","","","null","","","","","","
      <img class=""person-img"" src=""https://raw.githubusercontent.com/saramff/face-recognition-images/refs/heads/master//women/woman_69.jpg"">
      <p class=""person-name"">Ida</p>
    ","","","",""
"null","","html-keyboard-response","333","2.0.0","361608","q4f85mgtb1bqbh1","true","23","weiblich","rechts","Deutsch","","","null","","","","","","<div style=""font-size:60px;"">+</div>","fixation","","",""
"null","","html-keyboard-response","334","2.0.0","362614","q4f85mgtb1bqbh1","true","23","weiblich","rechts","Deutsch","","","null","","","","","","
      <img class=""person-img"" src=""https://raw.githubusercontent.com/saramff/face-recognition-images/refs/heads/master//women/woman_38.jpg"">
      <p class=""person-name"">Stella</p>
    ","","","",""
"null","","html-keyboard-response","335","2.0.0","363642","q4f85mgtb1bqbh1","true","23","weiblich","rechts","Deutsch","","","null","","","","","","<div style=""font-size:60px;"">+</div>","fixation","","",""
"null","","html-keyboard-response","336","2.0.0","364647","q4f85mgtb1bqbh1","true","23","weiblich","rechts","Deutsch","","","null","","","","","","
      <img class=""person-img"" src=""https://raw.githubusercontent.com/saramff/face-recognition-images/refs/heads/master//men/man_16.jpg"">
      <p class=""person-name"">Karsten</p>
    ","","","",""
"null","","html-keyboard-response","337","2.0.0","365650","q4f85mgtb1bqbh1","true","23","weiblich","rechts","Deutsch","","","null","","","","","","<div style=""font-size:60px;"">+</div>","fixation","","",""
"null","","html-keyboard-response","338","2.0.0","366662","q4f85mgtb1bqbh1","true","23","weiblich","rechts","Deutsch","","","null","","","","","","
      <img class=""person-img"" src=""https://raw.githubusercontent.com/saramff/face-recognition-images/refs/heads/master//men/man_55.jpg"">
      <p class=""person-name"">Daniel</p>
    ","","","",""
"null","","html-keyboard-response","339","2.0.0","367684","q4f85mgtb1bqbh1","true","23","weiblich","rechts","Deutsch","","","null","","","","","","<div style=""font-size:60px;"">+</div>","fixation","","",""
"null","","html-keyboard-response","340","2.0.0","368700","q4f85mgtb1bqbh1","true","23","weiblich","rechts","Deutsch","","","null","","","","","","
      <img class=""person-img"" src=""https://raw.githubusercontent.com/saramff/face-recognition-images/refs/heads/master//women/woman_90.jpg"">
      <p class=""person-name"">Janina</p>
    ","","","",""
"null","","html-keyboard-response","341","2.0.0","369717","q4f85mgtb1bqbh1","true","23","weiblich","rechts","Deutsch","","","null","","","","","","<div style=""font-size:60px;"">+</div>","fixation","","",""
"null","","html-keyboard-response","342","2.0.0","370720","q4f85mgtb1bqbh1","true","23","weiblich","rechts","Deutsch","","","null","","","","","","
      <img class=""person-img"" src=""https://raw.githubusercontent.com/saramff/face-recognition-images/refs/heads/master//women/woman_36.jpg"">
      <p class=""person-name"">Olivia</p>
    ","","","",""
"null","","html-keyboard-response","343","2.0.0","371765","q4f85mgtb1bqbh1","true","23","weiblich","rechts","Deutsch","","","null","","","","","","<div style=""font-size:60px;"">+</div>","fixation","","",""
"null","","html-keyboard-response","344","2.0.0","372782","q4f85mgtb1bqbh1","true","23","weiblich","rechts","Deutsch","","","null","","","","","","
      <img class=""person-img"" src=""https://raw.githubusercontent.com/saramff/face-recognition-images/refs/heads/master//women/woman_73.jpg"">
      <p class=""person-name"">Bianca</p>
    ","","","",""
"null","","html-keyboard-response","345","2.0.0","373805","q4f85mgtb1bqbh1","true","23","weiblich","rechts","Deutsch","","","null","","","","","","<div style=""font-size:60px;"">+</div>","fixation","","",""
"null","","html-keyboard-response","346","2.0.0","374818","q4f85mgtb1bqbh1","true","23","weiblich","rechts","Deutsch","","","null","","","","","","
      <img class=""person-img"" src=""https://raw.githubusercontent.com/saramff/face-recognition-images/refs/heads/master//women/woman_1.jpg"">
      <p class=""person-name"">Annie</p>
    ","","","",""
"null","","html-keyboard-response","347","2.0.0","375838","q4f85mgtb1bqbh1","true","23","weiblich","rechts","Deutsch","","","null","","","","","","<div style=""font-size:60px;"">+</div>","fixation","","",""
"null","","html-keyboard-response","348","2.0.0","376853","q4f85mgtb1bqbh1","true","23","weiblich","rechts","Deutsch","","","null","","","","","","
      <img class=""person-img"" src=""https://raw.githubusercontent.com/saramff/face-recognition-images/refs/heads/master//men/man_38.jpg"">
      <p class=""person-name"">Johannes</p>
    ","","","",""
"null","","html-keyboard-response","349","2.0.0","377872","q4f85mgtb1bqbh1","true","23","weiblich","rechts","Deutsch","","","null","","","","","","<div style=""font-size:60px;"">+</div>","fixation","","",""
"null","","html-keyboard-response","350","2.0.0","378876","q4f85mgtb1bqbh1","true","23","weiblich","rechts","Deutsch","","","null","","","","","","
      <img class=""person-img"" src=""https://raw.githubusercontent.com/saramff/face-recognition-images/refs/heads/master//men/man_40.jpg"">
      <p class=""person-name"">Christoph</p>
    ","","","",""
"null","","html-keyboard-response","351","2.0.0","379906","q4f85mgtb1bqbh1","true","23","weiblich","rechts","Deutsch","","","null","","","","","","<div style=""font-size:60px;"">+</div>","fixation","","",""
"null","","html-keyboard-response","352","2.0.0","380910","q4f85mgtb1bqbh1","true","23","weiblich","rechts","Deutsch","","","null","","","","","","
      <img class=""person-img"" src=""https://raw.githubusercontent.com/saramff/face-recognition-images/refs/heads/master//women/woman_51.jpg"">
      <p class=""person-name"">Nicole</p>
    ","","","",""
"null","","html-keyboard-response","353","2.0.0","381938","q4f85mgtb1bqbh1","true","23","weiblich","rechts","Deutsch","","","null","","","","","","<div style=""font-size:60px;"">+</div>","fixation","","",""
"null","","html-keyboard-response","354","2.0.0","382947","q4f85mgtb1bqbh1","true","23","weiblich","rechts","Deutsch","","","null","","","","","","
      <img class=""person-img"" src=""https://raw.githubusercontent.com/saramff/face-recognition-images/refs/heads/master//men/man_47.jpg"">
      <p class=""person-name"">Valentin</p>
    ","","","",""
"null","","html-keyboard-response","355","2.0.0","383962","q4f85mgtb1bqbh1","true","23","weiblich","rechts","Deutsch","","","null","","","","","","<div style=""font-size:60px;"">+</div>","fixation","","",""
"null","","html-keyboard-response","356","2.0.0","384978","q4f85mgtb1bqbh1","true","23","weiblich","rechts","Deutsch","","","null","","","","","","
      <img class=""person-img"" src=""https://raw.githubusercontent.com/saramff/face-recognition-images/refs/heads/master//men/man_22.jpg"">
      <p class=""person-name"">Elias</p>
    ","","","",""
"null","","html-keyboard-response","357","2.0.0","385981","q4f85mgtb1bqbh1","true","23","weiblich","rechts","Deutsch","","","null","","","","","","<div style=""font-size:60px;"">+</div>","fixation","","",""
"null","","html-keyboard-response","358","2.0.0","386994","q4f85mgtb1bqbh1","true","23","weiblich","rechts","Deutsch","","","null","","","","","","
      <img class=""person-img"" src=""https://raw.githubusercontent.com/saramff/face-recognition-images/refs/heads/master//men/man_37.jpg"">
      <p class=""person-name"">Hendrik</p>
    ","","","",""
"null","","html-keyboard-response","359","2.0.0","388013","q4f85mgtb1bqbh1","true","23","weiblich","rechts","Deutsch","","","null","","","","","","<div style=""font-size:60px;"">+</div>","fixation","","",""
