"rt","url","trial_type","trial_index","plugin_version","time_elapsed","subject","fullscreen","age","gender","handedness","language","success","type","response","question_order","timeout","failed_images","failed_audio","failed_video","stimulus","task","correct_response","correct","correct_response_meaning"
"84589","consentA2.html","external-html","0","2.0.0","84617","hjxq114zyq2ojua","true","28","weiblich","rechts","Deutsch","","","","","","","","","","","","",""
"2605","","fullscreen","1","2.0.0","88263","hjxq114zyq2ojua","true","28","weiblich","rechts","Deutsch","true","","","","","","","","","","","",""
"2989","","survey-text","2","2.0.0","91313","hjxq114zyq2ojua","true","28","weiblich","rechts","Deutsch","","demo","{""Q0"":""28""}","","","","","","","","","",""
"7239","","survey-multi-choice","3","2.0.0","98554","hjxq114zyq2ojua","true","28","weiblich","rechts","Deutsch","","","{""gender"":""weiblich"",""handedness"":""rechts"",""language"":""Deutsch""}","[0,1,2]","","","","","","","","",""
"","","preload","4","2.0.0","103005","hjxq114zyq2ojua","true","28","weiblich","rechts","Deutsch","true","","","","false","[]","[]","[]","","","","",""
"","","preload","5","2.0.0","104056","hjxq114zyq2ojua","true","28","weiblich","rechts","Deutsch","true","","","","false","[]","[]","[]","","","","",""
"","","preload","6","2.0.0","105366","hjxq114zyq2ojua","true","28","weiblich","rechts","Deutsch","true","","","","false","[]","[]","[]","","","","",""
"1559","","html-keyboard-response","7","2.0.0","106927","hjxq114zyq2ojua","true","28","weiblich","rechts","Deutsch","",""," ","","","","","","Willkommen zum Experiment. Drücken Sie eine beliebige Taste, um zu beginnen.","","","",""
"41664","","html-keyboard-response","8","2.0.0","148593","hjxq114zyq2ojua","true","28","weiblich","rechts","Deutsch","",""," ","","","","","","
    <p>In diesem Experiment werden nacheinander automatisch verschiedene Gesichter angezeigt.</p>
    <p>Bitte achten Sie genau auf jedes Gesicht und den dazugehörigen Namen.</p>
    <p>Die Gesichter erscheinen von selbst und Sie brauchen nichts weiter zu tun, außer aufmerksam zu sein.</p>
    <p>Drücken Sie eine beliebige Taste, um zu beginnen, wenn Sie bereit sind.</p>
  ","","","",""
"null","","html-keyboard-response","9","2.0.0","149598","hjxq114zyq2ojua","true","28","weiblich","rechts","Deutsch","","","null","","","","","","<div style=""font-size:60px;"">+</div>","fixation","","",""
"null","","html-keyboard-response","10","2.0.0","150602","hjxq114zyq2ojua","true","28","weiblich","rechts","Deutsch","","","null","","","","","","
      <img class=""person-img"" src=""https://raw.githubusercontent.com/saramff/face-recognition-images/refs/heads/master//men/man_38.jpg"">
      <p class=""person-name"">Manuel</p>
    ","","","",""
"null","","html-keyboard-response","11","2.0.0","151606","hjxq114zyq2ojua","true","28","weiblich","rechts","Deutsch","","","null","","","","","","<div style=""font-size:60px;"">+</div>","fixation","","",""
"null","","html-keyboard-response","12","2.0.0","152609","hjxq114zyq2ojua","true","28","weiblich","rechts","Deutsch","","","null","","","","","","
      <img class=""person-img"" src=""https://raw.githubusercontent.com/saramff/face-recognition-images/refs/heads/master//women/woman_89.jpg"">
      <p class=""person-name"">Sarah</p>
    ","","","",""
"null","","html-keyboard-response","13","2.0.0","153613","hjxq114zyq2ojua","true","28","weiblich","rechts","Deutsch","","","null","","","","","","<div style=""font-size:60px;"">+</div>","fixation","","",""
"null","","html-keyboard-response","14","2.0.0","154617","hjxq114zyq2ojua","true","28","weiblich","rechts","Deutsch","","","null","","","","","","
      <img class=""person-img"" src=""https://raw.githubusercontent.com/saramff/face-recognition-images/refs/heads/master//women/woman_18.jpg"">
      <p class=""person-name"">Svenja</p>
    ","","","",""
"null","","html-keyboard-response","15","2.0.0","155621","hjxq114zyq2ojua","true","28","weiblich","rechts","Deutsch","","","null","","","","","","<div style=""font-size:60px;"">+</div>","fixation","","",""
"null","","html-keyboard-response","16","2.0.0","156625","hjxq114zyq2ojua","true","28","weiblich","rechts","Deutsch","","","null","","","","","","
      <img class=""person-img"" src=""https://raw.githubusercontent.com/saramff/face-recognition-images/refs/heads/master//men/man_24.jpg"">
      <p class=""person-name"">Sven</p>
    ","","","",""
"null","","html-keyboard-response","17","2.0.0","157629","hjxq114zyq2ojua","true","28","weiblich","rechts","Deutsch","","","null","","","","","","<div style=""font-size:60px;"">+</div>","fixation","","",""
"null","","html-keyboard-response","18","2.0.0","158633","hjxq114zyq2ojua","true","28","weiblich","rechts","Deutsch","","","null","","","","","","
      <img class=""person-img"" src=""https://raw.githubusercontent.com/saramff/face-recognition-images/refs/heads/master//women/woman_47.jpg"">
      <p class=""person-name"">Lucie</p>
    ","","","",""
"null","","html-keyboard-response","19","2.0.0","159636","hjxq114zyq2ojua","true","28","weiblich","rechts","Deutsch","","","null","","","","","","<div style=""font-size:60px;"">+</div>","fixation","","",""
"null","","html-keyboard-response","20","2.0.0","160640","hjxq114zyq2ojua","true","28","weiblich","rechts","Deutsch","","","null","","","","","","
      <img class=""person-img"" src=""https://raw.githubusercontent.com/saramff/face-recognition-images/refs/heads/master//men/man_94.jpg"">
      <p class=""person-name"">Tim</p>
    ","","","",""
"null","","html-keyboard-response","21","2.0.0","161643","hjxq114zyq2ojua","true","28","weiblich","rechts","Deutsch","","","null","","","","","","<div style=""font-size:60px;"">+</div>","fixation","","",""
"null","","html-keyboard-response","22","2.0.0","162648","hjxq114zyq2ojua","true","28","weiblich","rechts","Deutsch","","","null","","","","","","
      <img class=""person-img"" src=""https://raw.githubusercontent.com/saramff/face-recognition-images/refs/heads/master//women/woman_58.jpg"">
      <p class=""person-name"">Annika</p>
    ","","","",""
"null","","html-keyboard-response","23","2.0.0","163650","hjxq114zyq2ojua","true","28","weiblich","rechts","Deutsch","","","null","","","","","","<div style=""font-size:60px;"">+</div>","fixation","","",""
"null","","html-keyboard-response","24","2.0.0","164655","hjxq114zyq2ojua","true","28","weiblich","rechts","Deutsch","","","null","","","","","","
      <img class=""person-img"" src=""https://raw.githubusercontent.com/saramff/face-recognition-images/refs/heads/master//men/man_67.jpg"">
      <p class=""person-name"">Julian</p>
    ","","","",""
"null","","html-keyboard-response","25","2.0.0","165657","hjxq114zyq2ojua","true","28","weiblich","rechts","Deutsch","","","null","","","","","","<div style=""font-size:60px;"">+</div>","fixation","","",""
"null","","html-keyboard-response","26","2.0.0","166662","hjxq114zyq2ojua","true","28","weiblich","rechts","Deutsch","","","null","","","","","","
      <img class=""person-img"" src=""https://raw.githubusercontent.com/saramff/face-recognition-images/refs/heads/master//men/man_89.jpg"">
      <p class=""person-name"">Bj&ouml;rn</p>
    ","","","",""
"null","","html-keyboard-response","27","2.0.0","167667","hjxq114zyq2ojua","true","28","weiblich","rechts","Deutsch","","","null","","","","","","<div style=""font-size:60px;"">+</div>","fixation","","",""
"null","","html-keyboard-response","28","2.0.0","168671","hjxq114zyq2ojua","true","28","weiblich","rechts","Deutsch","","","null","","","","","","
      <img class=""person-img"" src=""https://raw.githubusercontent.com/saramff/face-recognition-images/refs/heads/master//women/woman_3.jpg"">
      <p class=""person-name"">Klara</p>
    ","","","",""
"null","","html-keyboard-response","29","2.0.0","169674","hjxq114zyq2ojua","true","28","weiblich","rechts","Deutsch","","","null","","","","","","<div style=""font-size:60px;"">+</div>","fixation","","",""
"null","","html-keyboard-response","30","2.0.0","170679","hjxq114zyq2ojua","true","28","weiblich","rechts","Deutsch","","","null","","","","","","
      <img class=""person-img"" src=""https://raw.githubusercontent.com/saramff/face-recognition-images/refs/heads/master//women/woman_44.jpg"">
      <p class=""person-name"">Michaela</p>
    ","","","",""
"null","","html-keyboard-response","31","2.0.0","171681","hjxq114zyq2ojua","true","28","weiblich","rechts","Deutsch","","","null","","","","","","<div style=""font-size:60px;"">+</div>","fixation","","",""
"null","","html-keyboard-response","32","2.0.0","172686","hjxq114zyq2ojua","true","28","weiblich","rechts","Deutsch","","","null","","","","","","
      <img class=""person-img"" src=""https://raw.githubusercontent.com/saramff/face-recognition-images/refs/heads/master//women/woman_30.jpg"">
      <p class=""person-name"">Bianca</p>
    ","","","",""
"null","","html-keyboard-response","33","2.0.0","173688","hjxq114zyq2ojua","true","28","weiblich","rechts","Deutsch","","","null","","","","","","<div style=""font-size:60px;"">+</div>","fixation","","",""
"null","","html-keyboard-response","34","2.0.0","174693","hjxq114zyq2ojua","true","28","weiblich","rechts","Deutsch","","","null","","","","","","
      <img class=""person-img"" src=""https://raw.githubusercontent.com/saramff/face-recognition-images/refs/heads/master//men/man_15.jpg"">
      <p class=""person-name"">Karl</p>
    ","","","",""
"null","","html-keyboard-response","35","2.0.0","175695","hjxq114zyq2ojua","true","28","weiblich","rechts","Deutsch","","","null","","","","","","<div style=""font-size:60px;"">+</div>","fixation","","",""
"null","","html-keyboard-response","36","2.0.0","176700","hjxq114zyq2ojua","true","28","weiblich","rechts","Deutsch","","","null","","","","","","
      <img class=""person-img"" src=""https://raw.githubusercontent.com/saramff/face-recognition-images/refs/heads/master//men/man_54.jpg"">
      <p class=""person-name"">Leonard</p>
    ","","","",""
"null","","html-keyboard-response","37","2.0.0","177702","hjxq114zyq2ojua","true","28","weiblich","rechts","Deutsch","","","null","","","","","","<div style=""font-size:60px;"">+</div>","fixation","","",""
"null","","html-keyboard-response","38","2.0.0","178707","hjxq114zyq2ojua","true","28","weiblich","rechts","Deutsch","","","null","","","","","","
      <img class=""person-img"" src=""https://raw.githubusercontent.com/saramff/face-recognition-images/refs/heads/master//men/man_85.jpg"">
      <p class=""person-name"">Jonathan</p>
    ","","","",""
"null","","html-keyboard-response","39","2.0.0","179710","hjxq114zyq2ojua","true","28","weiblich","rechts","Deutsch","","","null","","","","","","<div style=""font-size:60px;"">+</div>","fixation","","",""
"null","","html-keyboard-response","40","2.0.0","180714","hjxq114zyq2ojua","true","28","weiblich","rechts","Deutsch","","","null","","","","","","
      <img class=""person-img"" src=""https://raw.githubusercontent.com/saramff/face-recognition-images/refs/heads/master//men/man_3.jpg"">
      <p class=""person-name"">Robert</p>
    ","","","",""
"null","","html-keyboard-response","41","2.0.0","181719","hjxq114zyq2ojua","true","28","weiblich","rechts","Deutsch","","","null","","","","","","<div style=""font-size:60px;"">+</div>","fixation","","",""
"null","","html-keyboard-response","42","2.0.0","182723","hjxq114zyq2ojua","true","28","weiblich","rechts","Deutsch","","","null","","","","","","
      <img class=""person-img"" src=""https://raw.githubusercontent.com/saramff/face-recognition-images/refs/heads/master//women/woman_61.jpg"">
      <p class=""person-name"">Annie</p>
    ","","","",""
"null","","html-keyboard-response","43","2.0.0","183727","hjxq114zyq2ojua","true","28","weiblich","rechts","Deutsch","","","null","","","","","","<div style=""font-size:60px;"">+</div>","fixation","","",""
"null","","html-keyboard-response","44","2.0.0","184731","hjxq114zyq2ojua","true","28","weiblich","rechts","Deutsch","","","null","","","","","","
      <img class=""person-img"" src=""https://raw.githubusercontent.com/saramff/face-recognition-images/refs/heads/master//women/woman_13.jpg"">
      <p class=""person-name"">Pia</p>
    ","","","",""
"null","","html-keyboard-response","45","2.0.0","185734","hjxq114zyq2ojua","true","28","weiblich","rechts","Deutsch","","","null","","","","","","<div style=""font-size:60px;"">+</div>","fixation","","",""
"null","","html-keyboard-response","46","2.0.0","186738","hjxq114zyq2ojua","true","28","weiblich","rechts","Deutsch","","","null","","","","","","
      <img class=""person-img"" src=""https://raw.githubusercontent.com/saramff/face-recognition-images/refs/heads/master//women/woman_90.jpg"">
      <p class=""person-name"">Ariane</p>
    ","","","",""
"null","","html-keyboard-response","47","2.0.0","187741","hjxq114zyq2ojua","true","28","weiblich","rechts","Deutsch","","","null","","","","","","<div style=""font-size:60px;"">+</div>","fixation","","",""
"null","","html-keyboard-response","48","2.0.0","188746","hjxq114zyq2ojua","true","28","weiblich","rechts","Deutsch","","","null","","","","","","
      <img class=""person-img"" src=""https://raw.githubusercontent.com/saramff/face-recognition-images/refs/heads/master//women/woman_28.jpg"">
      <p class=""person-name"">Janina</p>
    ","","","",""
"null","","html-keyboard-response","49","2.0.0","189750","hjxq114zyq2ojua","true","28","weiblich","rechts","Deutsch","","","null","","","","","","<div style=""font-size:60px;"">+</div>","fixation","","",""
"null","","html-keyboard-response","50","2.0.0","190755","hjxq114zyq2ojua","true","28","weiblich","rechts","Deutsch","","","null","","","","","","
      <img class=""person-img"" src=""https://raw.githubusercontent.com/saramff/face-recognition-images/refs/heads/master//men/man_78.jpg"">
      <p class=""person-name"">Olaf</p>
    ","","","",""
"null","","html-keyboard-response","51","2.0.0","191759","hjxq114zyq2ojua","true","28","weiblich","rechts","Deutsch","","","null","","","","","","<div style=""font-size:60px;"">+</div>","fixation","","",""
"null","","html-keyboard-response","52","2.0.0","192763","hjxq114zyq2ojua","true","28","weiblich","rechts","Deutsch","","","null","","","","","","
      <img class=""person-img"" src=""https://raw.githubusercontent.com/saramff/face-recognition-images/refs/heads/master//men/man_27.jpg"">
      <p class=""person-name"">Florian</p>
    ","","","",""
"null","","html-keyboard-response","53","2.0.0","193766","hjxq114zyq2ojua","true","28","weiblich","rechts","Deutsch","","","null","","","","","","<div style=""font-size:60px;"">+</div>","fixation","","",""
"null","","html-keyboard-response","54","2.0.0","194770","hjxq114zyq2ojua","true","28","weiblich","rechts","Deutsch","","","null","","","","","","
      <img class=""person-img"" src=""https://raw.githubusercontent.com/saramff/face-recognition-images/refs/heads/master//men/man_71.jpg"">
      <p class=""person-name"">Frank</p>
    ","","","",""
"null","","html-keyboard-response","55","2.0.0","195773","hjxq114zyq2ojua","true","28","weiblich","rechts","Deutsch","","","null","","","","","","<div style=""font-size:60px;"">+</div>","fixation","","",""
"null","","html-keyboard-response","56","2.0.0","196776","hjxq114zyq2ojua","true","28","weiblich","rechts","Deutsch","","","null","","","","","","
      <img class=""person-img"" src=""https://raw.githubusercontent.com/saramff/face-recognition-images/refs/heads/master//men/man_37.jpg"">
      <p class=""person-name"">Markus</p>
    ","","","",""
"null","","html-keyboard-response","57","2.0.0","197779","hjxq114zyq2ojua","true","28","weiblich","rechts","Deutsch","","","null","","","","","","<div style=""font-size:60px;"">+</div>","fixation","","",""
"null","","html-keyboard-response","58","2.0.0","198783","hjxq114zyq2ojua","true","28","weiblich","rechts","Deutsch","","","null","","","","","","
      <img class=""person-img"" src=""https://raw.githubusercontent.com/saramff/face-recognition-images/refs/heads/master//men/man_20.jpg"">
      <p class=""person-name"">Thomas</p>
    ","","","",""
"null","","html-keyboard-response","59","2.0.0","199786","hjxq114zyq2ojua","true","28","weiblich","rechts","Deutsch","","","null","","","","","","<div style=""font-size:60px;"">+</div>","fixation","","",""
"null","","html-keyboard-response","60","2.0.0","200790","hjxq114zyq2ojua","true","28","weiblich","rechts","Deutsch","","","null","","","","","","
      <img class=""person-img"" src=""https://raw.githubusercontent.com/saramff/face-recognition-images/refs/heads/master//women/woman_65.jpg"">
      <p class=""person-name"">Theresa</p>
    ","","","",""
"null","","html-keyboard-response","61","2.0.0","201793","hjxq114zyq2ojua","true","28","weiblich","rechts","Deutsch","","","null","","","","","","<div style=""font-size:60px;"">+</div>","fixation","","",""
"null","","html-keyboard-response","62","2.0.0","202797","hjxq114zyq2ojua","true","28","weiblich","rechts","Deutsch","","","null","","","","","","
      <img class=""person-img"" src=""https://raw.githubusercontent.com/saramff/face-recognition-images/refs/heads/master//women/woman_77.jpg"">
      <p class=""person-name"">Leila</p>
    ","","","",""
"null","","html-keyboard-response","63","2.0.0","203800","hjxq114zyq2ojua","true","28","weiblich","rechts","Deutsch","","","null","","","","","","<div style=""font-size:60px;"">+</div>","fixation","","",""
"null","","html-keyboard-response","64","2.0.0","204804","hjxq114zyq2ojua","true","28","weiblich","rechts","Deutsch","","","null","","","","","","
      <img class=""person-img"" src=""https://raw.githubusercontent.com/saramff/face-recognition-images/refs/heads/master//women/woman_57.jpg"">
      <p class=""person-name"">Lotte</p>
    ","","","",""
"null","","html-keyboard-response","65","2.0.0","205806","hjxq114zyq2ojua","true","28","weiblich","rechts","Deutsch","","","null","","","","","","<div style=""font-size:60px;"">+</div>","fixation","","",""
"null","","html-keyboard-response","66","2.0.0","206810","hjxq114zyq2ojua","true","28","weiblich","rechts","Deutsch","","","null","","","","","","
      <img class=""person-img"" src=""https://raw.githubusercontent.com/saramff/face-recognition-images/refs/heads/master//men/man_34.jpg"">
      <p class=""person-name"">Jens</p>
    ","","","",""
"null","","html-keyboard-response","67","2.0.0","207813","hjxq114zyq2ojua","true","28","weiblich","rechts","Deutsch","","","null","","","","","","<div style=""font-size:60px;"">+</div>","fixation","","",""
"null","","html-keyboard-response","68","2.0.0","208818","hjxq114zyq2ojua","true","28","weiblich","rechts","Deutsch","","","null","","","","","","
      <img class=""person-img"" src=""https://raw.githubusercontent.com/saramff/face-recognition-images/refs/heads/master//men/man_11.jpg"">
      <p class=""person-name"">Gereon</p>
    ","","","",""
"null","","html-keyboard-response","69","2.0.0","209820","hjxq114zyq2ojua","true","28","weiblich","rechts","Deutsch","","","null","","","","","","<div style=""font-size:60px;"">+</div>","fixation","","",""
"null","","html-keyboard-response","70","2.0.0","210824","hjxq114zyq2ojua","true","28","weiblich","rechts","Deutsch","","","null","","","","","","
      <img class=""person-img"" src=""https://raw.githubusercontent.com/saramff/face-recognition-images/refs/heads/master//men/man_39.jpg"">
      <p class=""person-name"">Thorsten</p>
    ","","","",""
"null","","html-keyboard-response","71","2.0.0","211826","hjxq114zyq2ojua","true","28","weiblich","rechts","Deutsch","","","null","","","","","","<div style=""font-size:60px;"">+</div>","fixation","","",""
"null","","html-keyboard-response","72","2.0.0","212831","hjxq114zyq2ojua","true","28","weiblich","rechts","Deutsch","","","null","","","","","","
      <img class=""person-img"" src=""https://raw.githubusercontent.com/saramff/face-recognition-images/refs/heads/master//men/man_19.jpg"">
      <p class=""person-name"">Jakob</p>
    ","","","",""
"null","","html-keyboard-response","73","2.0.0","213835","hjxq114zyq2ojua","true","28","weiblich","rechts","Deutsch","","","null","","","","","","<div style=""font-size:60px;"">+</div>","fixation","","",""
"null","","html-keyboard-response","74","2.0.0","214838","hjxq114zyq2ojua","true","28","weiblich","rechts","Deutsch","","","null","","","","","","
      <img class=""person-img"" src=""https://raw.githubusercontent.com/saramff/face-recognition-images/refs/heads/master//women/woman_87.jpg"">
      <p class=""person-name"">Sophia</p>
    ","","","",""
"null","","html-keyboard-response","75","2.0.0","215841","hjxq114zyq2ojua","true","28","weiblich","rechts","Deutsch","","","null","","","","","","<div style=""font-size:60px;"">+</div>","fixation","","",""
"null","","html-keyboard-response","76","2.0.0","216845","hjxq114zyq2ojua","true","28","weiblich","rechts","Deutsch","","","null","","","","","","
      <img class=""person-img"" src=""https://raw.githubusercontent.com/saramff/face-recognition-images/refs/heads/master//women/woman_37.jpg"">
      <p class=""person-name"">Claudia</p>
    ","","","",""
"null","","html-keyboard-response","77","2.0.0","217848","hjxq114zyq2ojua","true","28","weiblich","rechts","Deutsch","","","null","","","","","","<div style=""font-size:60px;"">+</div>","fixation","","",""
"null","","html-keyboard-response","78","2.0.0","218853","hjxq114zyq2ojua","true","28","weiblich","rechts","Deutsch","","","null","","","","","","
      <img class=""person-img"" src=""https://raw.githubusercontent.com/saramff/face-recognition-images/refs/heads/master//women/woman_63.jpg"">
      <p class=""person-name"">Finja</p>
    ","","","",""
"null","","html-keyboard-response","79","2.0.0","219856","hjxq114zyq2ojua","true","28","weiblich","rechts","Deutsch","","","null","","","","","","<div style=""font-size:60px;"">+</div>","fixation","","",""
"null","","html-keyboard-response","80","2.0.0","220860","hjxq114zyq2ojua","true","28","weiblich","rechts","Deutsch","","","null","","","","","","
      <img class=""person-img"" src=""https://raw.githubusercontent.com/saramff/face-recognition-images/refs/heads/master//men/man_52.jpg"">
      <p class=""person-name"">Guido</p>
    ","","","",""
"null","","html-keyboard-response","81","2.0.0","221864","hjxq114zyq2ojua","true","28","weiblich","rechts","Deutsch","","","null","","","","","","<div style=""font-size:60px;"">+</div>","fixation","","",""
"null","","html-keyboard-response","82","2.0.0","222868","hjxq114zyq2ojua","true","28","weiblich","rechts","Deutsch","","","null","","","","","","
      <img class=""person-img"" src=""https://raw.githubusercontent.com/saramff/face-recognition-images/refs/heads/master//women/woman_70.jpg"">
      <p class=""person-name"">Marlene</p>
    ","","","",""
"null","","html-keyboard-response","83","2.0.0","223871","hjxq114zyq2ojua","true","28","weiblich","rechts","Deutsch","","","null","","","","","","<div style=""font-size:60px;"">+</div>","fixation","","",""
"null","","html-keyboard-response","84","2.0.0","224875","hjxq114zyq2ojua","true","28","weiblich","rechts","Deutsch","","","null","","","","","","
      <img class=""person-img"" src=""https://raw.githubusercontent.com/saramff/face-recognition-images/refs/heads/master//men/man_75.jpg"">
      <p class=""person-name"">Patrick</p>
    ","","","",""
"null","","html-keyboard-response","85","2.0.0","225878","hjxq114zyq2ojua","true","28","weiblich","rechts","Deutsch","","","null","","","","","","<div style=""font-size:60px;"">+</div>","fixation","","",""
"null","","html-keyboard-response","86","2.0.0","226882","hjxq114zyq2ojua","true","28","weiblich","rechts","Deutsch","","","null","","","","","","
      <img class=""person-img"" src=""https://raw.githubusercontent.com/saramff/face-recognition-images/refs/heads/master//men/man_46.jpg"">
      <p class=""person-name"">Paul</p>
    ","","","",""
"null","","html-keyboard-response","87","2.0.0","227885","hjxq114zyq2ojua","true","28","weiblich","rechts","Deutsch","","","null","","","","","","<div style=""font-size:60px;"">+</div>","fixation","","",""
"null","","html-keyboard-response","88","2.0.0","228889","hjxq114zyq2ojua","true","28","weiblich","rechts","Deutsch","","","null","","","","","","
      <img class=""person-img"" src=""https://raw.githubusercontent.com/saramff/face-recognition-images/refs/heads/master//women/woman_45.jpg"">
      <p class=""person-name"">Ariane</p>
    ","","","",""
"null","","html-keyboard-response","89","2.0.0","229892","hjxq114zyq2ojua","true","28","weiblich","rechts","Deutsch","","","null","","","","","","<div style=""font-size:60px;"">+</div>","fixation","","",""
"null","","html-keyboard-response","90","2.0.0","230896","hjxq114zyq2ojua","true","28","weiblich","rechts","Deutsch","","","null","","","","","","
      <img class=""person-img"" src=""https://raw.githubusercontent.com/saramff/face-recognition-images/refs/heads/master//men/man_64.jpg"">
      <p class=""person-name"">Tobias</p>
    ","","","",""
"null","","html-keyboard-response","91","2.0.0","231898","hjxq114zyq2ojua","true","28","weiblich","rechts","Deutsch","","","null","","","","","","<div style=""font-size:60px;"">+</div>","fixation","","",""
"null","","html-keyboard-response","92","2.0.0","232901","hjxq114zyq2ojua","true","28","weiblich","rechts","Deutsch","","","null","","","","","","
      <img class=""person-img"" src=""https://raw.githubusercontent.com/saramff/face-recognition-images/refs/heads/master//women/woman_14.jpg"">
      <p class=""person-name"">Ida</p>
    ","","","",""
"null","","html-keyboard-response","93","2.0.0","233904","hjxq114zyq2ojua","true","28","weiblich","rechts","Deutsch","","","null","","","","","","<div style=""font-size:60px;"">+</div>","fixation","","",""
"null","","html-keyboard-response","94","2.0.0","234908","hjxq114zyq2ojua","true","28","weiblich","rechts","Deutsch","","","null","","","","","","
      <img class=""person-img"" src=""https://raw.githubusercontent.com/saramff/face-recognition-images/refs/heads/master//women/woman_75.jpg"">
      <p class=""person-name"">Charlotte</p>
    ","","","",""
"null","","html-keyboard-response","95","2.0.0","235912","hjxq114zyq2ojua","true","28","weiblich","rechts","Deutsch","","","null","","","","","","<div style=""font-size:60px;"">+</div>","fixation","","",""
"null","","html-keyboard-response","96","2.0.0","236916","hjxq114zyq2ojua","true","28","weiblich","rechts","Deutsch","","","null","","","","","","
      <img class=""person-img"" src=""https://raw.githubusercontent.com/saramff/face-recognition-images/refs/heads/master//men/man_88.jpg"">
      <p class=""person-name"">Philipp</p>
    ","","","",""
"null","","html-keyboard-response","97","2.0.0","237919","hjxq114zyq2ojua","true","28","weiblich","rechts","Deutsch","","","null","","","","","","<div style=""font-size:60px;"">+</div>","fixation","","",""
"null","","html-keyboard-response","98","2.0.0","238922","hjxq114zyq2ojua","true","28","weiblich","rechts","Deutsch","","","null","","","","","","
      <img class=""person-img"" src=""https://raw.githubusercontent.com/saramff/face-recognition-images/refs/heads/master//women/woman_5.jpg"">
      <p class=""person-name"">Freya</p>
    ","","","",""
"null","","html-keyboard-response","99","2.0.0","239925","hjxq114zyq2ojua","true","28","weiblich","rechts","Deutsch","","","null","","","","","","<div style=""font-size:60px;"">+</div>","fixation","","",""
"null","","html-keyboard-response","100","2.0.0","240928","hjxq114zyq2ojua","true","28","weiblich","rechts","Deutsch","","","null","","","","","","
      <img class=""person-img"" src=""https://raw.githubusercontent.com/saramff/face-recognition-images/refs/heads/master//women/woman_81.jpg"">
      <p class=""person-name"">Jasmin</p>
    ","","","",""
"null","","html-keyboard-response","101","2.0.0","241932","hjxq114zyq2ojua","true","28","weiblich","rechts","Deutsch","","","null","","","","","","<div style=""font-size:60px;"">+</div>","fixation","","",""
"null","","html-keyboard-response","102","2.0.0","242936","hjxq114zyq2ojua","true","28","weiblich","rechts","Deutsch","","","null","","","","","","
      <img class=""person-img"" src=""https://raw.githubusercontent.com/saramff/face-recognition-images/refs/heads/master//women/woman_26.jpg"">
      <p class=""person-name"">Valentina</p>
    ","","","",""
"null","","html-keyboard-response","103","2.0.0","243939","hjxq114zyq2ojua","true","28","weiblich","rechts","Deutsch","","","null","","","","","","<div style=""font-size:60px;"">+</div>","fixation","","",""
"null","","html-keyboard-response","104","2.0.0","244943","hjxq114zyq2ojua","true","28","weiblich","rechts","Deutsch","","","null","","","","","","
      <img class=""person-img"" src=""https://raw.githubusercontent.com/saramff/face-recognition-images/refs/heads/master//men/man_1.jpg"">
      <p class=""person-name"">Artur</p>
    ","","","",""
"null","","html-keyboard-response","105","2.0.0","245946","hjxq114zyq2ojua","true","28","weiblich","rechts","Deutsch","","","null","","","","","","<div style=""font-size:60px;"">+</div>","fixation","","",""
"null","","html-keyboard-response","106","2.0.0","246950","hjxq114zyq2ojua","true","28","weiblich","rechts","Deutsch","","","null","","","","","","
      <img class=""person-img"" src=""https://raw.githubusercontent.com/saramff/face-recognition-images/refs/heads/master//women/woman_38.jpg"">
      <p class=""person-name"">Lisa</p>
    ","","","",""
"null","","html-keyboard-response","107","2.0.0","247953","hjxq114zyq2ojua","true","28","weiblich","rechts","Deutsch","","","null","","","","","","<div style=""font-size:60px;"">+</div>","fixation","","",""
"null","","html-keyboard-response","108","2.0.0","248957","hjxq114zyq2ojua","true","28","weiblich","rechts","Deutsch","","","null","","","","","","
      <img class=""person-img"" src=""https://raw.githubusercontent.com/saramff/face-recognition-images/refs/heads/master//women/woman_6.jpg"">
      <p class=""person-name"">Carla</p>
    ","","","",""
"null","","html-keyboard-response","109","2.0.0","249960","hjxq114zyq2ojua","true","28","weiblich","rechts","Deutsch","","","null","","","","","","<div style=""font-size:60px;"">+</div>","fixation","","",""
"null","","html-keyboard-response","110","2.0.0","250964","hjxq114zyq2ojua","true","28","weiblich","rechts","Deutsch","","","null","","","","","","
      <img class=""person-img"" src=""https://raw.githubusercontent.com/saramff/face-recognition-images/refs/heads/master//women/woman_29.jpg"">
      <p class=""person-name"">Katharina</p>
    ","","","",""
"null","","html-keyboard-response","111","2.0.0","251967","hjxq114zyq2ojua","true","28","weiblich","rechts","Deutsch","","","null","","","","","","<div style=""font-size:60px;"">+</div>","fixation","","",""
"null","","html-keyboard-response","112","2.0.0","252971","hjxq114zyq2ojua","true","28","weiblich","rechts","Deutsch","","","null","","","","","","
      <img class=""person-img"" src=""https://raw.githubusercontent.com/saramff/face-recognition-images/refs/heads/master//women/woman_56.jpg"">
      <p class=""person-name"">Franziska</p>
    ","","","",""
"null","","html-keyboard-response","113","2.0.0","253976","hjxq114zyq2ojua","true","28","weiblich","rechts","Deutsch","","","null","","","","","","<div style=""font-size:60px;"">+</div>","fixation","","",""
"null","","html-keyboard-response","114","2.0.0","254980","hjxq114zyq2ojua","true","28","weiblich","rechts","Deutsch","","","null","","","","","","
      <img class=""person-img"" src=""https://raw.githubusercontent.com/saramff/face-recognition-images/refs/heads/master//women/woman_84.jpg"">
      <p class=""person-name"">Stella</p>
    ","","","",""
"null","","html-keyboard-response","115","2.0.0","255983","hjxq114zyq2ojua","true","28","weiblich","rechts","Deutsch","","","null","","","","","","<div style=""font-size:60px;"">+</div>","fixation","","",""
"null","","html-keyboard-response","116","2.0.0","256988","hjxq114zyq2ojua","true","28","weiblich","rechts","Deutsch","","","null","","","","","","
      <img class=""person-img"" src=""https://raw.githubusercontent.com/saramff/face-recognition-images/refs/heads/master//women/woman_66.jpg"">
      <p class=""person-name"">Mathilda</p>
    ","","","",""
"null","","html-keyboard-response","117","2.0.0","257991","hjxq114zyq2ojua","true","28","weiblich","rechts","Deutsch","","","null","","","","","","<div style=""font-size:60px;"">+</div>","fixation","","",""
"null","","html-keyboard-response","118","2.0.0","258995","hjxq114zyq2ojua","true","28","weiblich","rechts","Deutsch","","","null","","","","","","
      <img class=""person-img"" src=""https://raw.githubusercontent.com/saramff/face-recognition-images/refs/heads/master//men/man_12.jpg"">
      <p class=""person-name"">Christoph</p>
    ","","","",""
"null","","html-keyboard-response","119","2.0.0","259998","hjxq114zyq2ojua","true","28","weiblich","rechts","Deutsch","","","null","","","","","","<div style=""font-size:60px;"">+</div>","fixation","","",""
"null","","html-keyboard-response","120","2.0.0","261002","hjxq114zyq2ojua","true","28","weiblich","rechts","Deutsch","","","null","","","","","","
      <img class=""person-img"" src=""https://raw.githubusercontent.com/saramff/face-recognition-images/refs/heads/master//men/man_53.jpg"">
      <p class=""person-name"">J&ouml;rg</p>
    ","","","",""
"null","","html-keyboard-response","121","2.0.0","262005","hjxq114zyq2ojua","true","28","weiblich","rechts","Deutsch","","","null","","","","","","<div style=""font-size:60px;"">+</div>","fixation","","",""
"null","","html-keyboard-response","122","2.0.0","263009","hjxq114zyq2ojua","true","28","weiblich","rechts","Deutsch","","","null","","","","","","
      <img class=""person-img"" src=""https://raw.githubusercontent.com/saramff/face-recognition-images/refs/heads/master//men/man_62.jpg"">
      <p class=""person-name"">Axel</p>
    ","","","",""
"null","","html-keyboard-response","123","2.0.0","264012","hjxq114zyq2ojua","true","28","weiblich","rechts","Deutsch","","","null","","","","","","<div style=""font-size:60px;"">+</div>","fixation","","",""
"null","","html-keyboard-response","124","2.0.0","265016","hjxq114zyq2ojua","true","28","weiblich","rechts","Deutsch","","","null","","","","","","
      <img class=""person-img"" src=""https://raw.githubusercontent.com/saramff/face-recognition-images/refs/heads/master//men/man_47.jpg"">
      <p class=""person-name"">Eugen</p>
    ","","","",""
"null","","html-keyboard-response","125","2.0.0","266018","hjxq114zyq2ojua","true","28","weiblich","rechts","Deutsch","","","null","","","","","","<div style=""font-size:60px;"">+</div>","fixation","","",""
"null","","html-keyboard-response","126","2.0.0","267022","hjxq114zyq2ojua","true","28","weiblich","rechts","Deutsch","","","null","","","","","","
      <img class=""person-img"" src=""https://raw.githubusercontent.com/saramff/face-recognition-images/refs/heads/master//women/woman_73.jpg"">
      <p class=""person-name"">Malou</p>
    ","","","",""
"null","","html-keyboard-response","127","2.0.0","268025","hjxq114zyq2ojua","true","28","weiblich","rechts","Deutsch","","","null","","","","","","<div style=""font-size:60px;"">+</div>","fixation","","",""
"null","","html-keyboard-response","128","2.0.0","269030","hjxq114zyq2ojua","true","28","weiblich","rechts","Deutsch","","","null","","","","","","
      <img class=""person-img"" src=""https://raw.githubusercontent.com/saramff/face-recognition-images/refs/heads/master//women/woman_92.jpg"">
      <p class=""person-name"">Beate</p>
    ","","","",""
"null","","html-keyboard-response","129","2.0.0","270033","hjxq114zyq2ojua","true","28","weiblich","rechts","Deutsch","","","null","","","","","","<div style=""font-size:60px;"">+</div>","fixation","","",""
"null","","html-keyboard-response","130","2.0.0","271037","hjxq114zyq2ojua","true","28","weiblich","rechts","Deutsch","","","null","","","","","","
      <img class=""person-img"" src=""https://raw.githubusercontent.com/saramff/face-recognition-images/refs/heads/master//women/woman_60.jpg"">
      <p class=""person-name"">Josephine</p>
    ","","","",""
"null","","html-keyboard-response","131","2.0.0","272039","hjxq114zyq2ojua","true","28","weiblich","rechts","Deutsch","","","null","","","","","","<div style=""font-size:60px;"">+</div>","fixation","","",""
"null","","html-keyboard-response","132","2.0.0","273044","hjxq114zyq2ojua","true","28","weiblich","rechts","Deutsch","","","null","","","","","","
      <img class=""person-img"" src=""https://raw.githubusercontent.com/saramff/face-recognition-images/refs/heads/master//women/woman_95.jpg"">
      <p class=""person-name"">Yara</p>
    ","","","",""
"null","","html-keyboard-response","133","2.0.0","274046","hjxq114zyq2ojua","true","28","weiblich","rechts","Deutsch","","","null","","","","","","<div style=""font-size:60px;"">+</div>","fixation","","",""
"null","","html-keyboard-response","134","2.0.0","275050","hjxq114zyq2ojua","true","28","weiblich","rechts","Deutsch","","","null","","","","","","
      <img class=""person-img"" src=""https://raw.githubusercontent.com/saramff/face-recognition-images/refs/heads/master//women/woman_67.jpg"">
      <p class=""person-name"">Anouk</p>
    ","","","",""
"null","","html-keyboard-response","135","2.0.0","276053","hjxq114zyq2ojua","true","28","weiblich","rechts","Deutsch","","","null","","","","","","<div style=""font-size:60px;"">+</div>","fixation","","",""
"null","","html-keyboard-response","136","2.0.0","277057","hjxq114zyq2ojua","true","28","weiblich","rechts","Deutsch","","","null","","","","","","
      <img class=""person-img"" src=""https://raw.githubusercontent.com/saramff/face-recognition-images/refs/heads/master//women/woman_24.jpg"">
      <p class=""person-name"">Karlotta</p>
    ","","","",""
"null","","html-keyboard-response","137","2.0.0","278059","hjxq114zyq2ojua","true","28","weiblich","rechts","Deutsch","","","null","","","","","","<div style=""font-size:60px;"">+</div>","fixation","","",""
"null","","html-keyboard-response","138","2.0.0","279064","hjxq114zyq2ojua","true","28","weiblich","rechts","Deutsch","","","null","","","","","","
      <img class=""person-img"" src=""https://raw.githubusercontent.com/saramff/face-recognition-images/refs/heads/master//men/man_70.jpg"">
      <p class=""person-name"">Marius</p>
    ","","","",""
"null","","html-keyboard-response","139","2.0.0","280068","hjxq114zyq2ojua","true","28","weiblich","rechts","Deutsch","","","null","","","","","","<div style=""font-size:60px;"">+</div>","fixation","","",""
"null","","html-keyboard-response","140","2.0.0","281071","hjxq114zyq2ojua","true","28","weiblich","rechts","Deutsch","","","null","","","","","","
      <img class=""person-img"" src=""https://raw.githubusercontent.com/saramff/face-recognition-images/refs/heads/master//men/man_14.jpg"">
      <p class=""person-name"">Noah</p>
    ","","","",""
"null","","html-keyboard-response","141","2.0.0","282074","hjxq114zyq2ojua","true","28","weiblich","rechts","Deutsch","","","null","","","","","","<div style=""font-size:60px;"">+</div>","fixation","","",""
"null","","html-keyboard-response","142","2.0.0","283078","hjxq114zyq2ojua","true","28","weiblich","rechts","Deutsch","","","null","","","","","","
      <img class=""person-img"" src=""https://raw.githubusercontent.com/saramff/face-recognition-images/refs/heads/master//men/man_23.jpg"">
      <p class=""person-name"">Jochen</p>
    ","","","",""
"null","","html-keyboard-response","143","2.0.0","284081","hjxq114zyq2ojua","true","28","weiblich","rechts","Deutsch","","","null","","","","","","<div style=""font-size:60px;"">+</div>","fixation","","",""
"null","","html-keyboard-response","144","2.0.0","285085","hjxq114zyq2ojua","true","28","weiblich","rechts","Deutsch","","","null","","","","","","
      <img class=""person-img"" src=""https://raw.githubusercontent.com/saramff/face-recognition-images/refs/heads/master//men/man_16.jpg"">
      <p class=""person-name"">Oliver</p>
    ","","","",""
"null","","html-keyboard-response","145","2.0.0","286088","hjxq114zyq2ojua","true","28","weiblich","rechts","Deutsch","","","null","","","","","","<div style=""font-size:60px;"">+</div>","fixation","","",""
"null","","html-keyboard-response","146","2.0.0","287092","hjxq114zyq2ojua","true","28","weiblich","rechts","Deutsch","","","null","","","","","","
      <img class=""person-img"" src=""https://raw.githubusercontent.com/saramff/face-recognition-images/refs/heads/master//women/woman_82.jpg"">
      <p class=""person-name"">Marla</p>
    ","","","",""
"null","","html-keyboard-response","147","2.0.0","288095","hjxq114zyq2ojua","true","28","weiblich","rechts","Deutsch","","","null","","","","","","<div style=""font-size:60px;"">+</div>","fixation","","",""
"null","","html-keyboard-response","148","2.0.0","289099","hjxq114zyq2ojua","true","28","weiblich","rechts","Deutsch","","","null","","","","","","
      <img class=""person-img"" src=""https://raw.githubusercontent.com/saramff/face-recognition-images/refs/heads/master//women/woman_35.jpg"">
      <p class=""person-name"">Alina</p>
    ","","","",""
"null","","html-keyboard-response","149","2.0.0","290101","hjxq114zyq2ojua","true","28","weiblich","rechts","Deutsch","","","null","","","","","","<div style=""font-size:60px;"">+</div>","fixation","","",""
"null","","html-keyboard-response","150","2.0.0","291105","hjxq114zyq2ojua","true","28","weiblich","rechts","Deutsch","","","null","","","","","","
      <img class=""person-img"" src=""https://raw.githubusercontent.com/saramff/face-recognition-images/refs/heads/master//men/man_21.jpg"">
      <p class=""person-name"">Ulrich</p>
    ","","","",""
"null","","html-keyboard-response","151","2.0.0","292107","hjxq114zyq2ojua","true","28","weiblich","rechts","Deutsch","","","null","","","","","","<div style=""font-size:60px;"">+</div>","fixation","","",""
"null","","html-keyboard-response","152","2.0.0","293111","hjxq114zyq2ojua","true","28","weiblich","rechts","Deutsch","","","null","","","","","","
      <img class=""person-img"" src=""https://raw.githubusercontent.com/saramff/face-recognition-images/refs/heads/master//men/man_36.jpg"">
      <p class=""person-name"">Ludwig</p>
    ","","","",""
"null","","html-keyboard-response","153","2.0.0","294114","hjxq114zyq2ojua","true","28","weiblich","rechts","Deutsch","","","null","","","","","","<div style=""font-size:60px;"">+</div>","fixation","","",""
"null","","html-keyboard-response","154","2.0.0","295118","hjxq114zyq2ojua","true","28","weiblich","rechts","Deutsch","","","null","","","","","","
      <img class=""person-img"" src=""https://raw.githubusercontent.com/saramff/face-recognition-images/refs/heads/master//men/man_41.jpg"">
      <p class=""person-name"">Valentin</p>
    ","","","",""
"null","","html-keyboard-response","155","2.0.0","296121","hjxq114zyq2ojua","true","28","weiblich","rechts","Deutsch","","","null","","","","","","<div style=""font-size:60px;"">+</div>","fixation","","",""
"null","","html-keyboard-response","156","2.0.0","297125","hjxq114zyq2ojua","true","28","weiblich","rechts","Deutsch","","","null","","","","","","
      <img class=""person-img"" src=""https://raw.githubusercontent.com/saramff/face-recognition-images/refs/heads/master//men/man_96.jpg"">
      <p class=""person-name"">David</p>
    ","","","",""
"null","","html-keyboard-response","157","2.0.0","298127","hjxq114zyq2ojua","true","28","weiblich","rechts","Deutsch","","","null","","","","","","<div style=""font-size:60px;"">+</div>","fixation","","",""
"null","","html-keyboard-response","158","2.0.0","299131","hjxq114zyq2ojua","true","28","weiblich","rechts","Deutsch","","","null","","","","","","
      <img class=""person-img"" src=""https://raw.githubusercontent.com/saramff/face-recognition-images/refs/heads/master//men/man_73.jpg"">
      <p class=""person-name"">Ingo</p>
    ","","","",""
"null","","html-keyboard-response","159","2.0.0","300133","hjxq114zyq2ojua","true","28","weiblich","rechts","Deutsch","","","null","","","","","","<div style=""font-size:60px;"">+</div>","fixation","","",""
"null","","html-keyboard-response","160","2.0.0","301137","hjxq114zyq2ojua","true","28","weiblich","rechts","Deutsch","","","null","","","","","","
      <img class=""person-img"" src=""https://raw.githubusercontent.com/saramff/face-recognition-images/refs/heads/master//women/woman_17.jpg"">
      <p class=""person-name"">Ella</p>
    ","","","",""
"null","","html-keyboard-response","161","2.0.0","302140","hjxq114zyq2ojua","true","28","weiblich","rechts","Deutsch","","","null","","","","","","<div style=""font-size:60px;"">+</div>","fixation","","",""
"null","","html-keyboard-response","162","2.0.0","303144","hjxq114zyq2ojua","true","28","weiblich","rechts","Deutsch","","","null","","","","","","
      <img class=""person-img"" src=""https://raw.githubusercontent.com/saramff/face-recognition-images/refs/heads/master//women/woman_19.jpg"">
      <p class=""person-name"">Marie</p>
    ","","","",""
"null","","html-keyboard-response","163","2.0.0","304146","hjxq114zyq2ojua","true","28","weiblich","rechts","Deutsch","","","null","","","","","","<div style=""font-size:60px;"">+</div>","fixation","","",""
"null","","html-keyboard-response","164","2.0.0","305151","hjxq114zyq2ojua","true","28","weiblich","rechts","Deutsch","","","null","","","","","","
      <img class=""person-img"" src=""https://raw.githubusercontent.com/saramff/face-recognition-images/refs/heads/master//men/man_51.jpg"">
      <p class=""person-name"">Felix</p>
    ","","","",""
"null","","html-keyboard-response","165","2.0.0","306154","hjxq114zyq2ojua","true","28","weiblich","rechts","Deutsch","","","null","","","","","","<div style=""font-size:60px;"">+</div>","fixation","","",""
"null","","html-keyboard-response","166","2.0.0","307158","hjxq114zyq2ojua","true","28","weiblich","rechts","Deutsch","","","null","","","","","","
      <img class=""person-img"" src=""https://raw.githubusercontent.com/saramff/face-recognition-images/refs/heads/master//men/man_30.jpg"">
      <p class=""person-name"">Simon</p>
    ","","","",""
"null","","html-keyboard-response","167","2.0.0","308160","hjxq114zyq2ojua","true","28","weiblich","rechts","Deutsch","","","null","","","","","","<div style=""font-size:60px;"">+</div>","fixation","","",""
"null","","html-keyboard-response","168","2.0.0","309164","hjxq114zyq2ojua","true","28","weiblich","rechts","Deutsch","","","null","","","","","","
      <img class=""person-img"" src=""https://raw.githubusercontent.com/saramff/face-recognition-images/refs/heads/master//men/man_32.jpg"">
      <p class=""person-name"">Konstantin</p>
    ","","","",""
"null","","html-keyboard-response","169","2.0.0","310167","hjxq114zyq2ojua","true","28","weiblich","rechts","Deutsch","","","null","","","","","","<div style=""font-size:60px;"">+</div>","fixation","","",""
"null","","html-keyboard-response","170","2.0.0","311171","hjxq114zyq2ojua","true","28","weiblich","rechts","Deutsch","","","null","","","","","","
      <img class=""person-img"" src=""https://raw.githubusercontent.com/saramff/face-recognition-images/refs/heads/master//women/woman_96.jpg"">
      <p class=""person-name"">Zoe</p>
    ","","","",""
"null","","html-keyboard-response","171","2.0.0","312175","hjxq114zyq2ojua","true","28","weiblich","rechts","Deutsch","","","null","","","","","","<div style=""font-size:60px;"">+</div>","fixation","","",""
"null","","html-keyboard-response","172","2.0.0","313178","hjxq114zyq2ojua","true","28","weiblich","rechts","Deutsch","","","null","","","","","","
      <img class=""person-img"" src=""https://raw.githubusercontent.com/saramff/face-recognition-images/refs/heads/master//women/woman_51.jpg"">
      <p class=""person-name"">Viktoria</p>
    ","","","",""
"null","","html-keyboard-response","173","2.0.0","314181","hjxq114zyq2ojua","true","28","weiblich","rechts","Deutsch","","","null","","","","","","<div style=""font-size:60px;"">+</div>","fixation","","",""
"null","","html-keyboard-response","174","2.0.0","315185","hjxq114zyq2ojua","true","28","weiblich","rechts","Deutsch","","","null","","","","","","
      <img class=""person-img"" src=""https://raw.githubusercontent.com/saramff/face-recognition-images/refs/heads/master//women/woman_22.jpg"">
      <p class=""person-name"">Helena</p>
    ","","","",""
"null","","html-keyboard-response","175","2.0.0","316187","hjxq114zyq2ojua","true","28","weiblich","rechts","Deutsch","","","null","","","","","","<div style=""font-size:60px;"">+</div>","fixation","","",""
"null","","html-keyboard-response","176","2.0.0","317192","hjxq114zyq2ojua","true","28","weiblich","rechts","Deutsch","","","null","","","","","","
      <img class=""person-img"" src=""https://raw.githubusercontent.com/saramff/face-recognition-images/refs/heads/master//women/woman_91.jpg"">
      <p class=""person-name"">Livia</p>
    ","","","",""
"null","","html-keyboard-response","177","2.0.0","318194","hjxq114zyq2ojua","true","28","weiblich","rechts","Deutsch","","","null","","","","","","<div style=""font-size:60px;"">+</div>","fixation","","",""
"null","","html-keyboard-response","178","2.0.0","319199","hjxq114zyq2ojua","true","28","weiblich","rechts","Deutsch","","","null","","","","","","
      <img class=""person-img"" src=""https://raw.githubusercontent.com/saramff/face-recognition-images/refs/heads/master//women/woman_42.jpg"">
      <p class=""person-name"">Sabrina</p>
    ","","","",""
"null","","html-keyboard-response","179","2.0.0","320202","hjxq114zyq2ojua","true","28","weiblich","rechts","Deutsch","","","null","","","","","","<div style=""font-size:60px;"">+</div>","fixation","","",""
"null","","html-keyboard-response","180","2.0.0","321205","hjxq114zyq2ojua","true","28","weiblich","rechts","Deutsch","","","null","","","","","","
      <img class=""person-img"" src=""https://raw.githubusercontent.com/saramff/face-recognition-images/refs/heads/master//men/man_10.jpg"">
      <p class=""person-name"">Bernd</p>
    ","","","",""
"null","","html-keyboard-response","181","2.0.0","322208","hjxq114zyq2ojua","true","28","weiblich","rechts","Deutsch","","","null","","","","","","<div style=""font-size:60px;"">+</div>","fixation","","",""
"null","","html-keyboard-response","182","2.0.0","323212","hjxq114zyq2ojua","true","28","weiblich","rechts","Deutsch","","","null","","","","","","
      <img class=""person-img"" src=""https://raw.githubusercontent.com/saramff/face-recognition-images/refs/heads/master//men/man_74.jpg"">
      <p class=""person-name"">Anton</p>
    ","","","",""
"null","","html-keyboard-response","183","2.0.0","324215","hjxq114zyq2ojua","true","28","weiblich","rechts","Deutsch","","","null","","","","","","<div style=""font-size:60px;"">+</div>","fixation","","",""
"null","","html-keyboard-response","184","2.0.0","325219","hjxq114zyq2ojua","true","28","weiblich","rechts","Deutsch","","","null","","","","","","
      <img class=""person-img"" src=""https://raw.githubusercontent.com/saramff/face-recognition-images/refs/heads/master//men/man_40.jpg"">
      <p class=""person-name"">Moritz</p>
    ","","","",""
"null","","html-keyboard-response","185","2.0.0","326222","hjxq114zyq2ojua","true","28","weiblich","rechts","Deutsch","","","null","","","","","","<div style=""font-size:60px;"">+</div>","fixation","","",""
"null","","html-keyboard-response","186","2.0.0","327227","hjxq114zyq2ojua","true","28","weiblich","rechts","Deutsch","","","null","","","","","","
      <img class=""person-img"" src=""https://raw.githubusercontent.com/saramff/face-recognition-images/refs/heads/master//men/man_55.jpg"">
      <p class=""person-name"">Dominik</p>
    ","","","",""
"null","","html-keyboard-response","187","2.0.0","328229","hjxq114zyq2ojua","true","28","weiblich","rechts","Deutsch","","","null","","","","","","<div style=""font-size:60px;"">+</div>","fixation","","",""
"null","","html-keyboard-response","188","2.0.0","329233","hjxq114zyq2ojua","true","28","weiblich","rechts","Deutsch","","","null","","","","","","
      <img class=""person-img"" src=""https://raw.githubusercontent.com/saramff/face-recognition-images/refs/heads/master//women/woman_93.jpg"">
      <p class=""person-name"">Greta</p>
    ","","","",""
"null","","html-keyboard-response","189","2.0.0","330236","hjxq114zyq2ojua","true","28","weiblich","rechts","Deutsch","","","null","","","","","","<div style=""font-size:60px;"">+</div>","fixation","","",""
"null","","html-keyboard-response","190","2.0.0","331240","hjxq114zyq2ojua","true","28","weiblich","rechts","Deutsch","","","null","","","","","","
      <img class=""person-img"" src=""https://raw.githubusercontent.com/saramff/face-recognition-images/refs/heads/master//men/man_28.jpg"">
      <p class=""person-name"">Udo</p>
    ","","","",""
"null","","html-keyboard-response","191","2.0.0","332243","hjxq114zyq2ojua","true","28","weiblich","rechts","Deutsch","","","null","","","","","","<div style=""font-size:60px;"">+</div>","fixation","","",""
"null","","html-keyboard-response","192","2.0.0","333247","hjxq114zyq2ojua","true","28","weiblich","rechts","Deutsch","","","null","","","","","","
      <img class=""person-img"" src=""https://raw.githubusercontent.com/saramff/face-recognition-images/refs/heads/master//men/man_72.jpg"">
      <p class=""person-name"">Kilian</p>
    ","","","",""
"null","","html-keyboard-response","193","2.0.0","334250","hjxq114zyq2ojua","true","28","weiblich","rechts","Deutsch","","","null","","","","","","<div style=""font-size:60px;"">+</div>","fixation","","",""
"null","","html-keyboard-response","194","2.0.0","335254","hjxq114zyq2ojua","true","28","weiblich","rechts","Deutsch","","","null","","","","","","
      <img class=""person-img"" src=""https://raw.githubusercontent.com/saramff/face-recognition-images/refs/heads/master//men/man_79.jpg"">
      <p class=""person-name"">Hendrik</p>
    ","","","",""
"null","","html-keyboard-response","195","2.0.0","336257","hjxq114zyq2ojua","true","28","weiblich","rechts","Deutsch","","","null","","","","","","<div style=""font-size:60px;"">+</div>","fixation","","",""
"null","","html-keyboard-response","196","2.0.0","337261","hjxq114zyq2ojua","true","28","weiblich","rechts","Deutsch","","","null","","","","","","
      <img class=""person-img"" src=""https://raw.githubusercontent.com/saramff/face-recognition-images/refs/heads/master//women/woman_71.jpg"">
      <p class=""person-name"">Neele</p>
    ","","","",""
"null","","html-keyboard-response","197","2.0.0","338264","hjxq114zyq2ojua","true","28","weiblich","rechts","Deutsch","","","null","","","","","","<div style=""font-size:60px;"">+</div>","fixation","","",""
"null","","html-keyboard-response","198","2.0.0","339267","hjxq114zyq2ojua","true","28","weiblich","rechts","Deutsch","","","null","","","","","","
      <img class=""person-img"" src=""https://raw.githubusercontent.com/saramff/face-recognition-images/refs/heads/master//women/woman_4.jpg"">
      <p class=""person-name"">Nicole</p>
    ","","","",""
"null","","html-keyboard-response","199","2.0.0","340270","hjxq114zyq2ojua","true","28","weiblich","rechts","Deutsch","","","null","","","","","","<div style=""font-size:60px;"">+</div>","fixation","","",""
"null","","html-keyboard-response","200","2.0.0","341274","hjxq114zyq2ojua","true","28","weiblich","rechts","Deutsch","","","null","","","","","","
      <img class=""person-img"" src=""https://raw.githubusercontent.com/saramff/face-recognition-images/refs/heads/master//men/man_6.jpg"">
      <p class=""person-name"">Johannes</p>
    ","","","",""
"null","","html-keyboard-response","201","2.0.0","342277","hjxq114zyq2ojua","true","28","weiblich","rechts","Deutsch","","","null","","","","","","<div style=""font-size:60px;"">+</div>","fixation","","",""
"null","","html-keyboard-response","202","2.0.0","343281","hjxq114zyq2ojua","true","28","weiblich","rechts","Deutsch","","","null","","","","","","
      <img class=""person-img"" src=""https://raw.githubusercontent.com/saramff/face-recognition-images/refs/heads/master//men/man_48.jpg"">
      <p class=""person-name"">Bruno</p>
    ","","","",""
"null","","html-keyboard-response","203","2.0.0","344284","hjxq114zyq2ojua","true","28","weiblich","rechts","Deutsch","","","null","","","","","","<div style=""font-size:60px;"">+</div>","fixation","","",""
"null","","html-keyboard-response","204","2.0.0","345288","hjxq114zyq2ojua","true","28","weiblich","rechts","Deutsch","","","null","","","","","","
      <img class=""person-img"" src=""https://raw.githubusercontent.com/saramff/face-recognition-images/refs/heads/master//women/woman_39.jpg"">
      <p class=""person-name"">Christina</p>
    ","","","",""
"null","","html-keyboard-response","205","2.0.0","346290","hjxq114zyq2ojua","true","28","weiblich","rechts","Deutsch","","","null","","","","","","<div style=""font-size:60px;"">+</div>","fixation","","",""
"null","","html-keyboard-response","206","2.0.0","347294","hjxq114zyq2ojua","true","28","weiblich","rechts","Deutsch","","","null","","","","","","
      <img class=""person-img"" src=""https://raw.githubusercontent.com/saramff/face-recognition-images/refs/heads/master//men/man_31.jpg"">
      <p class=""person-name"">Holger</p>
    ","","","",""
"null","","html-keyboard-response","207","2.0.0","348297","hjxq114zyq2ojua","true","28","weiblich","rechts","Deutsch","","","null","","","","","","<div style=""font-size:60px;"">+</div>","fixation","","",""
"null","","html-keyboard-response","208","2.0.0","349301","hjxq114zyq2ojua","true","28","weiblich","rechts","Deutsch","","","null","","","","","","
      <img class=""person-img"" src=""https://raw.githubusercontent.com/saramff/face-recognition-images/refs/heads/master//women/woman_88.jpg"">
      <p class=""person-name"">Paulina</p>
    ","","","",""
"null","","html-keyboard-response","209","2.0.0","350304","hjxq114zyq2ojua","true","28","weiblich","rechts","Deutsch","","","null","","","","","","<div style=""font-size:60px;"">+</div>","fixation","","",""
"null","","html-keyboard-response","210","2.0.0","351309","hjxq114zyq2ojua","true","28","weiblich","rechts","Deutsch","","","null","","","","","","
      <img class=""person-img"" src=""https://raw.githubusercontent.com/saramff/face-recognition-images/refs/heads/master//men/man_42.jpg"">
      <p class=""person-name"">Alexander</p>
    ","","","",""
"null","","html-keyboard-response","211","2.0.0","352311","hjxq114zyq2ojua","true","28","weiblich","rechts","Deutsch","","","null","","","","","","<div style=""font-size:60px;"">+</div>","fixation","","",""
"null","","html-keyboard-response","212","2.0.0","353315","hjxq114zyq2ojua","true","28","weiblich","rechts","Deutsch","","","null","","","","","","
      <img class=""person-img"" src=""https://raw.githubusercontent.com/saramff/face-recognition-images/refs/heads/master//women/woman_59.jpg"">
      <p class=""person-name"">Sina</p>
    ","","","",""
"null","","html-keyboard-response","213","2.0.0","354317","hjxq114zyq2ojua","true","28","weiblich","rechts","Deutsch","","","null","","","","","","<div style=""font-size:60px;"">+</div>","fixation","","",""
"null","","html-keyboard-response","214","2.0.0","355321","hjxq114zyq2ojua","true","28","weiblich","rechts","Deutsch","","","null","","","","","","
      <img class=""person-img"" src=""https://raw.githubusercontent.com/saramff/face-recognition-images/refs/heads/master//women/woman_54.jpg"">
      <p class=""person-name"">Daniela</p>
    ","","","",""
"null","","html-keyboard-response","215","2.0.0","356324","hjxq114zyq2ojua","true","28","weiblich","rechts","Deutsch","","","null","","","","","","<div style=""font-size:60px;"">+</div>","fixation","","",""
"null","","html-keyboard-response","216","2.0.0","357328","hjxq114zyq2ojua","true","28","weiblich","rechts","Deutsch","","","null","","","","","","
      <img class=""person-img"" src=""https://raw.githubusercontent.com/saramff/face-recognition-images/refs/heads/master//women/woman_36.jpg"">
      <p class=""person-name"">Olivia</p>
    ","","","",""
"null","","html-keyboard-response","217","2.0.0","358331","hjxq114zyq2ojua","true","28","weiblich","rechts","Deutsch","","","null","","","","","","<div style=""font-size:60px;"">+</div>","fixation","","",""
"null","","html-keyboard-response","218","2.0.0","359335","hjxq114zyq2ojua","true","28","weiblich","rechts","Deutsch","","","null","","","","","","
      <img class=""person-img"" src=""https://raw.githubusercontent.com/saramff/face-recognition-images/refs/heads/master//men/man_8.jpg"">
      <p class=""person-name"">Max</p>
    ","","","",""
"null","","html-keyboard-response","219","2.0.0","360338","hjxq114zyq2ojua","true","28","weiblich","rechts","Deutsch","","","null","","","","","","<div style=""font-size:60px;"">+</div>","fixation","","",""
"null","","html-keyboard-response","220","2.0.0","361343","hjxq114zyq2ojua","true","28","weiblich","rechts","Deutsch","","","null","","","","","","
      <img class=""person-img"" src=""https://raw.githubusercontent.com/saramff/face-recognition-images/refs/heads/master//men/man_91.jpg"">
      <p class=""person-name"">Joel</p>
    ","","","",""
"null","","html-keyboard-response","221","2.0.0","362345","hjxq114zyq2ojua","true","28","weiblich","rechts","Deutsch","","","null","","","","","","<div style=""font-size:60px;"">+</div>","fixation","","",""
"null","","html-keyboard-response","222","2.0.0","363349","hjxq114zyq2ojua","true","28","weiblich","rechts","Deutsch","","","null","","","","","","
      <img class=""person-img"" src=""https://raw.githubusercontent.com/saramff/face-recognition-images/refs/heads/master//women/woman_76.jpg"">
      <p class=""person-name"">Kerstin</p>
    ","","","",""
"null","","html-keyboard-response","223","2.0.0","364352","hjxq114zyq2ojua","true","28","weiblich","rechts","Deutsch","","","null","","","","","","<div style=""font-size:60px;"">+</div>","fixation","","",""
"null","","html-keyboard-response","224","2.0.0","365356","hjxq114zyq2ojua","true","28","weiblich","rechts","Deutsch","","","null","","","","","","
      <img class=""person-img"" src=""https://raw.githubusercontent.com/saramff/face-recognition-images/refs/heads/master//women/woman_68.jpg"">
      <p class=""person-name"">Lilly</p>
    ","","","",""
"null","","html-keyboard-response","225","2.0.0","366359","hjxq114zyq2ojua","true","28","weiblich","rechts","Deutsch","","","null","","","","","","<div style=""font-size:60px;"">+</div>","fixation","","",""
"null","","html-keyboard-response","226","2.0.0","367363","hjxq114zyq2ojua","true","28","weiblich","rechts","Deutsch","","","null","","","","","","
      <img class=""person-img"" src=""https://raw.githubusercontent.com/saramff/face-recognition-images/refs/heads/master//men/man_87.jpg"">
      <p class=""person-name"">Jonas</p>
    ","","","",""
"null","","html-keyboard-response","227","2.0.0","368365","hjxq114zyq2ojua","true","28","weiblich","rechts","Deutsch","","","null","","","","","","<div style=""font-size:60px;"">+</div>","fixation","","",""
"null","","html-keyboard-response","228","2.0.0","369369","hjxq114zyq2ojua","true","28","weiblich","rechts","Deutsch","","","null","","","","","","
      <img class=""person-img"" src=""https://raw.githubusercontent.com/saramff/face-recognition-images/refs/heads/master//men/man_77.jpg"">
      <p class=""person-name"">Peter</p>
    ","","","",""
"null","","html-keyboard-response","229","2.0.0","370372","hjxq114zyq2ojua","true","28","weiblich","rechts","Deutsch","","","null","","","","","","<div style=""font-size:60px;"">+</div>","fixation","","",""
"null","","html-keyboard-response","230","2.0.0","371376","hjxq114zyq2ojua","true","28","weiblich","rechts","Deutsch","","","null","","","","","","
      <img class=""person-img"" src=""https://raw.githubusercontent.com/saramff/face-recognition-images/refs/heads/master//men/man_44.jpg"">
      <p class=""person-name"">Adrian</p>
    ","","","",""
"null","","html-keyboard-response","231","2.0.0","372379","hjxq114zyq2ojua","true","28","weiblich","rechts","Deutsch","","","null","","","","","","<div style=""font-size:60px;"">+</div>","fixation","","",""
"null","","html-keyboard-response","232","2.0.0","373383","hjxq114zyq2ojua","true","28","weiblich","rechts","Deutsch","","","null","","","","","","
      <img class=""person-img"" src=""https://raw.githubusercontent.com/saramff/face-recognition-images/refs/heads/master//men/man_60.jpg"">
      <p class=""person-name"">Konrad</p>
    ","","","",""
"null","","html-keyboard-response","233","2.0.0","374386","hjxq114zyq2ojua","true","28","weiblich","rechts","Deutsch","","","null","","","","","","<div style=""font-size:60px;"">+</div>","fixation","","",""
"null","","html-keyboard-response","234","2.0.0","375391","hjxq114zyq2ojua","true","28","weiblich","rechts","Deutsch","","","null","","","","","","
      <img class=""person-img"" src=""https://raw.githubusercontent.com/saramff/face-recognition-images/refs/heads/master//women/woman_74.jpg"">
      <p class=""person-name"">Laura</p>
    ","","","",""
"null","","html-keyboard-response","235","2.0.0","376394","hjxq114zyq2ojua","true","28","weiblich","rechts","Deutsch","","","null","","","","","","<div style=""font-size:60px;"">+</div>","fixation","","",""
"null","","html-keyboard-response","236","2.0.0","377398","hjxq114zyq2ojua","true","28","weiblich","rechts","Deutsch","","","null","","","","","","
      <img class=""person-img"" src=""https://raw.githubusercontent.com/saramff/face-recognition-images/refs/heads/master//women/woman_86.jpg"">
      <p class=""person-name"">Johanna</p>
    ","","","",""
"null","","html-keyboard-response","237","2.0.0","378400","hjxq114zyq2ojua","true","28","weiblich","rechts","Deutsch","","","null","","","","","","<div style=""font-size:60px;"">+</div>","fixation","","",""
"null","","html-keyboard-response","238","2.0.0","379404","hjxq114zyq2ojua","true","28","weiblich","rechts","Deutsch","","","null","","","","","","
      <img class=""person-img"" src=""https://raw.githubusercontent.com/saramff/face-recognition-images/refs/heads/master//women/woman_94.jpg"">
      <p class=""person-name"">Maja</p>
    ","","","",""
"null","","html-keyboard-response","239","2.0.0","380406","hjxq114zyq2ojua","true","28","weiblich","rechts","Deutsch","","","null","","","","","","<div style=""font-size:60px;"">+</div>","fixation","","",""
"null","","html-keyboard-response","240","2.0.0","381410","hjxq114zyq2ojua","true","28","weiblich","rechts","Deutsch","","","null","","","","","","
      <img class=""person-img"" src=""https://raw.githubusercontent.com/saramff/face-recognition-images/refs/heads/master//women/woman_34.jpg"">
      <p class=""person-name"">Rosalie</p>
    ","","","",""
"null","","html-keyboard-response","241","2.0.0","382413","hjxq114zyq2ojua","true","28","weiblich","rechts","Deutsch","","","null","","","","","","<div style=""font-size:60px;"">+</div>","fixation","","",""
"null","","html-keyboard-response","242","2.0.0","383418","hjxq114zyq2ojua","true","28","weiblich","rechts","Deutsch","","","null","","","","","","
      <img class=""person-img"" src=""https://raw.githubusercontent.com/saramff/face-recognition-images/refs/heads/master//women/woman_48.jpg"">
      <p class=""person-name"">Alma</p>
    ","","","",""
"null","","html-keyboard-response","243","2.0.0","384420","hjxq114zyq2ojua","true","28","weiblich","rechts","Deutsch","","","null","","","","","","<div style=""font-size:60px;"">+</div>","fixation","","",""
"null","","html-keyboard-response","244","2.0.0","385424","hjxq114zyq2ojua","true","28","weiblich","rechts","Deutsch","","","null","","","","","","
      <img class=""person-img"" src=""https://raw.githubusercontent.com/saramff/face-recognition-images/refs/heads/master//men/man_33.jpg"">
      <p class=""person-name"">Leon</p>
    ","","","",""
"null","","html-keyboard-response","245","2.0.0","386427","hjxq114zyq2ojua","true","28","weiblich","rechts","Deutsch","","","null","","","","","","<div style=""font-size:60px;"">+</div>","fixation","","",""
"null","","html-keyboard-response","246","2.0.0","387431","hjxq114zyq2ojua","true","28","weiblich","rechts","Deutsch","","","null","","","","","","
      <img class=""person-img"" src=""https://raw.githubusercontent.com/saramff/face-recognition-images/refs/heads/master//women/woman_79.jpg"">
      <p class=""person-name"">Tabea</p>
    ","","","",""
"null","","html-keyboard-response","247","2.0.0","388434","hjxq114zyq2ojua","true","28","weiblich","rechts","Deutsch","","","null","","","","","","<div style=""font-size:60px;"">+</div>","fixation","","",""
"null","","html-keyboard-response","248","2.0.0","389438","hjxq114zyq2ojua","true","28","weiblich","rechts","Deutsch","","","null","","","","","","
      <img class=""person-img"" src=""https://raw.githubusercontent.com/saramff/face-recognition-images/refs/heads/master//women/woman_52.jpg"">
      <p class=""person-name"">Nora</p>
    ","","","",""
"null","","html-keyboard-response","249","2.0.0","390441","hjxq114zyq2ojua","true","28","weiblich","rechts","Deutsch","","","null","","","","","","<div style=""font-size:60px;"">+</div>","fixation","","",""
"null","","html-keyboard-response","250","2.0.0","391445","hjxq114zyq2ojua","true","28","weiblich","rechts","Deutsch","","","null","","","","","","
      <img class=""person-img"" src=""https://raw.githubusercontent.com/saramff/face-recognition-images/refs/heads/master//women/woman_16.jpg"">
      <p class=""person-name"">Ayla</p>
    ","","","",""
"null","","html-keyboard-response","251","2.0.0","392447","hjxq114zyq2ojua","true","28","weiblich","rechts","Deutsch","","","null","","","","","","<div style=""font-size:60px;"">+</div>","fixation","","",""
"null","","html-keyboard-response","252","2.0.0","393451","hjxq114zyq2ojua","true","28","weiblich","rechts","Deutsch","","","null","","","","","","
      <img class=""person-img"" src=""https://raw.githubusercontent.com/saramff/face-recognition-images/refs/heads/master//men/man_7.jpg"">
      <p class=""person-name"">Richard</p>
    ","","","",""
"null","","html-keyboard-response","253","2.0.0","394453","hjxq114zyq2ojua","true","28","weiblich","rechts","Deutsch","","","null","","","","","","<div style=""font-size:60px;"">+</div>","fixation","","",""
"null","","html-keyboard-response","254","2.0.0","395457","hjxq114zyq2ojua","true","28","weiblich","rechts","Deutsch","","","null","","","","","","
      <img class=""person-img"" src=""https://raw.githubusercontent.com/saramff/face-recognition-images/refs/heads/master//men/man_76.jpg"">
      <p class=""person-name"">Matthias</p>
    ","","","",""
"null","","html-keyboard-response","255","2.0.0","396460","hjxq114zyq2ojua","true","28","weiblich","rechts","Deutsch","","","null","","","","","","<div style=""font-size:60px;"">+</div>","fixation","","",""
"null","","html-keyboard-response","256","2.0.0","397464","hjxq114zyq2ojua","true","28","weiblich","rechts","Deutsch","","","null","","","","","","
      <img class=""person-img"" src=""https://raw.githubusercontent.com/saramff/face-recognition-images/refs/heads/master//women/woman_31.jpg"">
      <p class=""person-name"">Fiona</p>
    ","","","",""
"null","","html-keyboard-response","257","2.0.0","398467","hjxq114zyq2ojua","true","28","weiblich","rechts","Deutsch","","","null","","","","","","<div style=""font-size:60px;"">+</div>","fixation","","",""
"null","","html-keyboard-response","258","2.0.0","399472","hjxq114zyq2ojua","true","28","weiblich","rechts","Deutsch","","","null","","","","","","
      <img class=""person-img"" src=""https://raw.githubusercontent.com/saramff/face-recognition-images/refs/heads/master//women/woman_8.jpg"">
      <p class=""person-name"">Hannah</p>
    ","","","",""
"null","","html-keyboard-response","259","2.0.0","400474","hjxq114zyq2ojua","true","28","weiblich","rechts","Deutsch","","","null","","","","","","<div style=""font-size:60px;"">+</div>","fixation","","",""
"null","","html-keyboard-response","260","2.0.0","401479","hjxq114zyq2ojua","true","28","weiblich","rechts","Deutsch","","","null","","","","","","
      <img class=""person-img"" src=""https://raw.githubusercontent.com/saramff/face-recognition-images/refs/heads/master//men/man_43.jpg"">
      <p class=""person-name"">Ren&eacute;</p>
    ","","","",""
"null","","html-keyboard-response","261","2.0.0","402482","hjxq114zyq2ojua","true","28","weiblich","rechts","Deutsch","","","null","","","","","","<div style=""font-size:60px;"">+</div>","fixation","","",""
"null","","html-keyboard-response","262","2.0.0","403486","hjxq114zyq2ojua","true","28","weiblich","rechts","Deutsch","","","null","","","","","","
      <img class=""person-img"" src=""https://raw.githubusercontent.com/saramff/face-recognition-images/refs/heads/master//men/man_35.jpg"">
      <p class=""person-name"">Achim</p>
    ","","","",""
"null","","html-keyboard-response","263","2.0.0","404488","hjxq114zyq2ojua","true","28","weiblich","rechts","Deutsch","","","null","","","","","","<div style=""font-size:60px;"">+</div>","fixation","","",""
"null","","html-keyboard-response","264","2.0.0","405492","hjxq114zyq2ojua","true","28","weiblich","rechts","Deutsch","","","null","","","","","","
      <img class=""person-img"" src=""https://raw.githubusercontent.com/saramff/face-recognition-images/refs/heads/master//women/woman_9.jpg"">
      <p class=""person-name"">Verena</p>
    ","","","",""
"null","","html-keyboard-response","265","2.0.0","406495","hjxq114zyq2ojua","true","28","weiblich","rechts","Deutsch","","","null","","","","","","<div style=""font-size:60px;"">+</div>","fixation","","",""
"null","","html-keyboard-response","266","2.0.0","407499","hjxq114zyq2ojua","true","28","weiblich","rechts","Deutsch","","","null","","","","","","
      <img class=""person-img"" src=""https://raw.githubusercontent.com/saramff/face-recognition-images/refs/heads/master//men/man_45.jpg"">
      <p class=""person-name"">Emil</p>
    ","","","",""
"null","","html-keyboard-response","267","2.0.0","408501","hjxq114zyq2ojua","true","28","weiblich","rechts","Deutsch","","","null","","","","","","<div style=""font-size:60px;"">+</div>","fixation","","",""
"null","","html-keyboard-response","268","2.0.0","409505","hjxq114zyq2ojua","true","28","weiblich","rechts","Deutsch","","","null","","","","","","
      <img class=""person-img"" src=""https://raw.githubusercontent.com/saramff/face-recognition-images/refs/heads/master//women/woman_20.jpg"">
      <p class=""person-name"">Eva</p>
    ","","","",""
"null","","html-keyboard-response","269","2.0.0","410507","hjxq114zyq2ojua","true","28","weiblich","rechts","Deutsch","","","null","","","","","","<div style=""font-size:60px;"">+</div>","fixation","","",""
"null","","html-keyboard-response","270","2.0.0","411512","hjxq114zyq2ojua","true","28","weiblich","rechts","Deutsch","","","null","","","","","","
      <img class=""person-img"" src=""https://raw.githubusercontent.com/saramff/face-recognition-images/refs/heads/master//women/woman_43.jpg"">
      <p class=""person-name"">Aurelia</p>
    ","","","",""
"null","","html-keyboard-response","271","2.0.0","412514","hjxq114zyq2ojua","true","28","weiblich","rechts","Deutsch","","","null","","","","","","<div style=""font-size:60px;"">+</div>","fixation","","",""
"null","","html-keyboard-response","272","2.0.0","413518","hjxq114zyq2ojua","true","28","weiblich","rechts","Deutsch","","","null","","","","","","
      <img class=""person-img"" src=""https://raw.githubusercontent.com/saramff/face-recognition-images/refs/heads/master//women/woman_49.jpg"">
      <p class=""person-name"">Ronja</p>
    ","","","",""
"null","","html-keyboard-response","273","2.0.0","414521","hjxq114zyq2ojua","true","28","weiblich","rechts","Deutsch","","","null","","","","","","<div style=""font-size:60px;"">+</div>","fixation","","",""
"null","","html-keyboard-response","274","2.0.0","415525","hjxq114zyq2ojua","true","28","weiblich","rechts","Deutsch","","","null","","","","","","
      <img class=""person-img"" src=""https://raw.githubusercontent.com/saramff/face-recognition-images/refs/heads/master//men/man_65.jpg"">
      <p class=""person-name"">Paul</p>
    ","","","",""
"null","","html-keyboard-response","275","2.0.0","416528","hjxq114zyq2ojua","true","28","weiblich","rechts","Deutsch","","","null","","","","","","<div style=""font-size:60px;"">+</div>","fixation","","",""
"null","","html-keyboard-response","276","2.0.0","417532","hjxq114zyq2ojua","true","28","weiblich","rechts","Deutsch","","","null","","","","","","
      <img class=""person-img"" src=""https://raw.githubusercontent.com/saramff/face-recognition-images/refs/heads/master//men/man_58.jpg"">
      <p class=""person-name"">Clemens</p>
    ","","","",""
"null","","html-keyboard-response","277","2.0.0","418535","hjxq114zyq2ojua","true","28","weiblich","rechts","Deutsch","","","null","","","","","","<div style=""font-size:60px;"">+</div>","fixation","","",""
"null","","html-keyboard-response","278","2.0.0","419539","hjxq114zyq2ojua","true","28","weiblich","rechts","Deutsch","","","null","","","","","","
      <img class=""person-img"" src=""https://raw.githubusercontent.com/saramff/face-recognition-images/refs/heads/master//men/man_80.jpg"">
      <p class=""person-name"">Aaron</p>
    ","","","",""
"null","","html-keyboard-response","279","2.0.0","420542","hjxq114zyq2ojua","true","28","weiblich","rechts","Deutsch","","","null","","","","","","<div style=""font-size:60px;"">+</div>","fixation","","",""
"null","","html-keyboard-response","280","2.0.0","421546","hjxq114zyq2ojua","true","28","weiblich","rechts","Deutsch","","","null","","","","","","
      <img class=""person-img"" src=""https://raw.githubusercontent.com/saramff/face-recognition-images/refs/heads/master//women/woman_10.jpg"">
      <p class=""person-name"">Elly</p>
    ","","","",""
"null","","html-keyboard-response","281","2.0.0","422549","hjxq114zyq2ojua","true","28","weiblich","rechts","Deutsch","","","null","","","","","","<div style=""font-size:60px;"">+</div>","fixation","","",""
"null","","html-keyboard-response","282","2.0.0","423553","hjxq114zyq2ojua","true","28","weiblich","rechts","Deutsch","","","null","","","","","","
      <img class=""person-img"" src=""https://raw.githubusercontent.com/saramff/face-recognition-images/refs/heads/master//women/woman_12.jpg"">
      <p class=""person-name"">Annalena</p>
    ","","","",""
"null","","html-keyboard-response","283","2.0.0","424555","hjxq114zyq2ojua","true","28","weiblich","rechts","Deutsch","","","null","","","","","","<div style=""font-size:60px;"">+</div>","fixation","","",""
"null","","html-keyboard-response","284","2.0.0","425559","hjxq114zyq2ojua","true","28","weiblich","rechts","Deutsch","","","null","","","","","","
      <img class=""person-img"" src=""https://raw.githubusercontent.com/saramff/face-recognition-images/refs/heads/master//men/man_84.jpg"">
      <p class=""person-name"">Steffen</p>
    ","","","",""
"null","","html-keyboard-response","285","2.0.0","426562","hjxq114zyq2ojua","true","28","weiblich","rechts","Deutsch","","","null","","","","","","<div style=""font-size:60px;"">+</div>","fixation","","",""
"null","","html-keyboard-response","286","2.0.0","427567","hjxq114zyq2ojua","true","28","weiblich","rechts","Deutsch","","","null","","","","","","
      <img class=""person-img"" src=""https://raw.githubusercontent.com/saramff/face-recognition-images/refs/heads/master//women/woman_21.jpg"">
      <p class=""person-name"">Celine</p>
    ","","","",""
"null","","html-keyboard-response","287","2.0.0","428569","hjxq114zyq2ojua","true","28","weiblich","rechts","Deutsch","","","null","","","","","","<div style=""font-size:60px;"">+</div>","fixation","","",""
"null","","html-keyboard-response","288","2.0.0","429573","hjxq114zyq2ojua","true","28","weiblich","rechts","Deutsch","","","null","","","","","","
      <img class=""person-img"" src=""https://raw.githubusercontent.com/saramff/face-recognition-images/refs/heads/master//men/man_83.jpg"">
      <p class=""person-name"">Oskar</p>
    ","","","",""
"null","","html-keyboard-response","289","2.0.0","430576","hjxq114zyq2ojua","true","28","weiblich","rechts","Deutsch","","","null","","","","","","<div style=""font-size:60px;"">+</div>","fixation","","",""
"null","","html-keyboard-response","290","2.0.0","431580","hjxq114zyq2ojua","true","28","weiblich","rechts","Deutsch","","","null","","","","","","
      <img class=""person-img"" src=""https://raw.githubusercontent.com/saramff/face-recognition-images/refs/heads/master//men/man_4.jpg"">
      <p class=""person-name"">Ben</p>
    ","","","",""
"null","","html-keyboard-response","291","2.0.0","432582","hjxq114zyq2ojua","true","28","weiblich","rechts","Deutsch","","","null","","","","","","<div style=""font-size:60px;"">+</div>","fixation","","",""
"null","","html-keyboard-response","292","2.0.0","433586","hjxq114zyq2ojua","true","28","weiblich","rechts","Deutsch","","","null","","","","","","
      <img class=""person-img"" src=""https://raw.githubusercontent.com/saramff/face-recognition-images/refs/heads/master//women/woman_23.jpg"">
      <p class=""person-name"">Louisa</p>
    ","","","",""
"null","","html-keyboard-response","293","2.0.0","434588","hjxq114zyq2ojua","true","28","weiblich","rechts","Deutsch","","","null","","","","","","<div style=""font-size:60px;"">+</div>","fixation","","",""
"null","","html-keyboard-response","294","2.0.0","435592","hjxq114zyq2ojua","true","28","weiblich","rechts","Deutsch","","","null","","","","","","
      <img class=""person-img"" src=""https://raw.githubusercontent.com/saramff/face-recognition-images/refs/heads/master//women/woman_33.jpg"">
      <p class=""person-name"">Julia</p>
    ","","","",""
"null","","html-keyboard-response","295","2.0.0","436595","hjxq114zyq2ojua","true","28","weiblich","rechts","Deutsch","","","null","","","","","","<div style=""font-size:60px;"">+</div>","fixation","","",""
"null","","html-keyboard-response","296","2.0.0","437599","hjxq114zyq2ojua","true","28","weiblich","rechts","Deutsch","","","null","","","","","","
      <img class=""person-img"" src=""https://raw.githubusercontent.com/saramff/face-recognition-images/refs/heads/master//men/man_92.jpg"">
      <p class=""person-name"">Viktor</p>
    ","","","",""
"null","","html-keyboard-response","297","2.0.0","438601","hjxq114zyq2ojua","true","28","weiblich","rechts","Deutsch","","","null","","","","","","<div style=""font-size:60px;"">+</div>","fixation","","",""
"null","","html-keyboard-response","298","2.0.0","439605","hjxq114zyq2ojua","true","28","weiblich","rechts","Deutsch","","","null","","","","","","
      <img class=""person-img"" src=""https://raw.githubusercontent.com/saramff/face-recognition-images/refs/heads/master//men/man_18.jpg"">
      <p class=""person-name"">Sebastian</p>
    ","","","",""
"null","","html-keyboard-response","299","2.0.0","440608","hjxq114zyq2ojua","true","28","weiblich","rechts","Deutsch","","","null","","","","","","<div style=""font-size:60px;"">+</div>","fixation","","",""
"null","","html-keyboard-response","300","2.0.0","441612","hjxq114zyq2ojua","true","28","weiblich","rechts","Deutsch","","","null","","","","","","
      <img class=""person-img"" src=""https://raw.githubusercontent.com/saramff/face-recognition-images/refs/heads/master//women/woman_62.jpg"">
      <p class=""person-name"">Amira</p>
    ","","","",""
"null","","html-keyboard-response","301","2.0.0","442615","hjxq114zyq2ojua","true","28","weiblich","rechts","Deutsch","","","null","","","","","","<div style=""font-size:60px;"">+</div>","fixation","","",""
"null","","html-keyboard-response","302","2.0.0","443619","hjxq114zyq2ojua","true","28","weiblich","rechts","Deutsch","","","null","","","","","","
      <img class=""person-img"" src=""https://raw.githubusercontent.com/saramff/face-recognition-images/refs/heads/master//women/woman_32.jpg"">
      <p class=""person-name"">Emma</p>
    ","","","",""
"null","","html-keyboard-response","303","2.0.0","444622","hjxq114zyq2ojua","true","28","weiblich","rechts","Deutsch","","","null","","","","","","<div style=""font-size:60px;"">+</div>","fixation","","",""
"null","","html-keyboard-response","304","2.0.0","445626","hjxq114zyq2ojua","true","28","weiblich","rechts","Deutsch","","","null","","","","","","
      <img class=""person-img"" src=""https://raw.githubusercontent.com/saramff/face-recognition-images/refs/heads/master//men/man_86.jpg"">
      <p class=""person-name"">Daniel</p>
    ","","","",""
"null","","html-keyboard-response","305","2.0.0","446629","hjxq114zyq2ojua","true","28","weiblich","rechts","Deutsch","","","null","","","","","","<div style=""font-size:60px;"">+</div>","fixation","","",""
"null","","html-keyboard-response","306","2.0.0","447634","hjxq114zyq2ojua","true","28","weiblich","rechts","Deutsch","","","null","","","","","","
      <img class=""person-img"" src=""https://raw.githubusercontent.com/saramff/face-recognition-images/refs/heads/master//women/woman_41.jpg"">
      <p class=""person-name"">Lea</p>
    ","","","",""
"null","","html-keyboard-response","307","2.0.0","448637","hjxq114zyq2ojua","true","28","weiblich","rechts","Deutsch","","","null","","","","","","<div style=""font-size:60px;"">+</div>","fixation","","",""
"null","","html-keyboard-response","308","2.0.0","449641","hjxq114zyq2ojua","true","28","weiblich","rechts","Deutsch","","","null","","","","","","
      <img class=""person-img"" src=""https://raw.githubusercontent.com/saramff/face-recognition-images/refs/heads/master//women/woman_78.jpg"">
      <p class=""person-name"">Lena</p>
    ","","","",""
"null","","html-keyboard-response","309","2.0.0","450644","hjxq114zyq2ojua","true","28","weiblich","rechts","Deutsch","","","null","","","","","","<div style=""font-size:60px;"">+</div>","fixation","","",""
"null","","html-keyboard-response","310","2.0.0","451648","hjxq114zyq2ojua","true","28","weiblich","rechts","Deutsch","","","null","","","","","","
      <img class=""person-img"" src=""https://raw.githubusercontent.com/saramff/face-recognition-images/refs/heads/master//women/woman_40.jpg"">
      <p class=""person-name"">Liana</p>
    ","","","",""
"null","","html-keyboard-response","311","2.0.0","452651","hjxq114zyq2ojua","true","28","weiblich","rechts","Deutsch","","","null","","","","","","<div style=""font-size:60px;"">+</div>","fixation","","",""
"null","","html-keyboard-response","312","2.0.0","453655","hjxq114zyq2ojua","true","28","weiblich","rechts","Deutsch","","","null","","","","","","
      <img class=""person-img"" src=""https://raw.githubusercontent.com/saramff/face-recognition-images/refs/heads/master//women/woman_46.jpg"">
      <p class=""person-name"">Antonia</p>
    ","","","",""
"null","","html-keyboard-response","313","2.0.0","454658","hjxq114zyq2ojua","true","28","weiblich","rechts","Deutsch","","","null","","","","","","<div style=""font-size:60px;"">+</div>","fixation","","",""
"null","","html-keyboard-response","314","2.0.0","455662","hjxq114zyq2ojua","true","28","weiblich","rechts","Deutsch","","","null","","","","","","
      <img class=""person-img"" src=""https://raw.githubusercontent.com/saramff/face-recognition-images/refs/heads/master//women/woman_55.jpg"">
      <p class=""person-name"">Carolin</p>
    ","","","",""
"null","","html-keyboard-response","315","2.0.0","456665","hjxq114zyq2ojua","true","28","weiblich","rechts","Deutsch","","","null","","","","","","<div style=""font-size:60px;"">+</div>","fixation","","",""
"null","","html-keyboard-response","316","2.0.0","457669","hjxq114zyq2ojua","true","28","weiblich","rechts","Deutsch","","","null","","","","","","
      <img class=""person-img"" src=""https://raw.githubusercontent.com/saramff/face-recognition-images/refs/heads/master//men/man_22.jpg"">
      <p class=""person-name"">Dirk</p>
    ","","","",""
"null","","html-keyboard-response","317","2.0.0","458672","hjxq114zyq2ojua","true","28","weiblich","rechts","Deutsch","","","null","","","","","","<div style=""font-size:60px;"">+</div>","fixation","","",""
"null","","html-keyboard-response","318","2.0.0","459675","hjxq114zyq2ojua","true","28","weiblich","rechts","Deutsch","","","null","","","","","","
      <img class=""person-img"" src=""https://raw.githubusercontent.com/saramff/face-recognition-images/refs/heads/master//men/man_61.jpg"">
      <p class=""person-name"">Elias</p>
    ","","","",""
"null","","html-keyboard-response","319","2.0.0","460678","hjxq114zyq2ojua","true","28","weiblich","rechts","Deutsch","","","null","","","","","","<div style=""font-size:60px;"">+</div>","fixation","","",""
"null","","html-keyboard-response","320","2.0.0","461682","hjxq114zyq2ojua","true","28","weiblich","rechts","Deutsch","","","null","","","","","","
      <img class=""person-img"" src=""https://raw.githubusercontent.com/saramff/face-recognition-images/refs/heads/master//men/man_59.jpg"">
      <p class=""person-name"">Theodor</p>
    ","","","",""
"null","","html-keyboard-response","321","2.0.0","462685","hjxq114zyq2ojua","true","28","weiblich","rechts","Deutsch","","","null","","","","","","<div style=""font-size:60px;"">+</div>","fixation","","",""
"null","","html-keyboard-response","322","2.0.0","463689","hjxq114zyq2ojua","true","28","weiblich","rechts","Deutsch","","","null","","","","","","
      <img class=""person-img"" src=""https://raw.githubusercontent.com/saramff/face-recognition-images/refs/heads/master//women/woman_1.jpg"">
      <p class=""person-name"">Henni</p>
    ","","","",""
"null","","html-keyboard-response","323","2.0.0","464692","hjxq114zyq2ojua","true","28","weiblich","rechts","Deutsch","","","null","","","","","","<div style=""font-size:60px;"">+</div>","fixation","","",""
"null","","html-keyboard-response","324","2.0.0","465695","hjxq114zyq2ojua","true","28","weiblich","rechts","Deutsch","","","null","","","","","","
      <img class=""person-img"" src=""https://raw.githubusercontent.com/saramff/face-recognition-images/refs/heads/master//men/man_29.jpg"">
      <p class=""person-name"">Raphael</p>
    ","","","",""
"null","","html-keyboard-response","325","2.0.0","466698","hjxq114zyq2ojua","true","28","weiblich","rechts","Deutsch","","","null","","","","","","<div style=""font-size:60px;"">+</div>","fixation","","",""
"null","","html-keyboard-response","326","2.0.0","467702","hjxq114zyq2ojua","true","28","weiblich","rechts","Deutsch","","","null","","","","","","
      <img class=""person-img"" src=""https://raw.githubusercontent.com/saramff/face-recognition-images/refs/heads/master//women/woman_64.jpg"">
      <p class=""person-name"">Anja</p>
    ","","","",""
"null","","html-keyboard-response","327","2.0.0","468704","hjxq114zyq2ojua","true","28","weiblich","rechts","Deutsch","","","null","","","","","","<div style=""font-size:60px;"">+</div>","fixation","","",""
"null","","html-keyboard-response","328","2.0.0","469708","hjxq114zyq2ojua","true","28","weiblich","rechts","Deutsch","","","null","","","","","","
      <img class=""person-img"" src=""https://raw.githubusercontent.com/saramff/face-recognition-images/refs/heads/master//men/man_63.jpg"">
      <p class=""person-name"">Marcel</p>
    ","","","",""
"null","","html-keyboard-response","329","2.0.0","470711","hjxq114zyq2ojua","true","28","weiblich","rechts","Deutsch","","","null","","","","","","<div style=""font-size:60px;"">+</div>","fixation","","",""
"null","","html-keyboard-response","330","2.0.0","471714","hjxq114zyq2ojua","true","28","weiblich","rechts","Deutsch","","","null","","","","","","
      <img class=""person-img"" src=""https://raw.githubusercontent.com/saramff/face-recognition-images/refs/heads/master//women/woman_85.jpg"">
      <p class=""person-name"">Fabienne</p>
    ","","","",""
"null","","html-keyboard-response","331","2.0.0","472716","hjxq114zyq2ojua","true","28","weiblich","rechts","Deutsch","","","null","","","","","","<div style=""font-size:60px;"">+</div>","fixation","","",""
"null","","html-keyboard-response","332","2.0.0","473721","hjxq114zyq2ojua","true","28","weiblich","rechts","Deutsch","","","null","","","","","","
      <img class=""person-img"" src=""https://raw.githubusercontent.com/saramff/face-recognition-images/refs/heads/master//women/woman_2.jpg"">
      <p class=""person-name"">Isabel</p>
    ","","","",""
"null","","html-keyboard-response","333","2.0.0","474723","hjxq114zyq2ojua","true","28","weiblich","rechts","Deutsch","","","null","","","","","","<div style=""font-size:60px;"">+</div>","fixation","","",""
"null","","html-keyboard-response","334","2.0.0","475727","hjxq114zyq2ojua","true","28","weiblich","rechts","Deutsch","","","null","","","","","","
      <img class=""person-img"" src=""https://raw.githubusercontent.com/saramff/face-recognition-images/refs/heads/master//women/woman_25.jpg"">
      <p class=""person-name"">Beate</p>
    ","","","",""
"null","","html-keyboard-response","335","2.0.0","476730","hjxq114zyq2ojua","true","28","weiblich","rechts","Deutsch","","","null","","","","","","<div style=""font-size:60px;"">+</div>","fixation","","",""
"null","","html-keyboard-response","336","2.0.0","477735","hjxq114zyq2ojua","true","28","weiblich","rechts","Deutsch","","","null","","","","","","
      <img class=""person-img"" src=""https://raw.githubusercontent.com/saramff/face-recognition-images/refs/heads/master//men/man_13.jpg"">
      <p class=""person-name"">Fabian</p>
    ","","","",""
"null","","html-keyboard-response","337","2.0.0","478737","hjxq114zyq2ojua","true","28","weiblich","rechts","Deutsch","","","null","","","","","","<div style=""font-size:60px;"">+</div>","fixation","","",""
"null","","html-keyboard-response","338","2.0.0","479741","hjxq114zyq2ojua","true","28","weiblich","rechts","Deutsch","","","null","","","","","","
      <img class=""person-img"" src=""https://raw.githubusercontent.com/saramff/face-recognition-images/refs/heads/master//men/man_25.jpg"">
      <p class=""person-name"">Albert</p>
    ","","","",""
"null","","html-keyboard-response","339","2.0.0","480743","hjxq114zyq2ojua","true","28","weiblich","rechts","Deutsch","","","null","","","","","","<div style=""font-size:60px;"">+</div>","fixation","","",""
"null","","html-keyboard-response","340","2.0.0","481747","hjxq114zyq2ojua","true","28","weiblich","rechts","Deutsch","","","null","","","","","","
      <img class=""person-img"" src=""https://raw.githubusercontent.com/saramff/face-recognition-images/refs/heads/master//men/man_50.jpg"">
      <p class=""person-name"">Gabriel</p>
    ","","","",""
"null","","html-keyboard-response","341","2.0.0","482750","hjxq114zyq2ojua","true","28","weiblich","rechts","Deutsch","","","null","","","","","","<div style=""font-size:60px;"">+</div>","fixation","","",""
"null","","html-keyboard-response","342","2.0.0","483754","hjxq114zyq2ojua","true","28","weiblich","rechts","Deutsch","","","null","","","","","","
      <img class=""person-img"" src=""https://raw.githubusercontent.com/saramff/face-recognition-images/refs/heads/master//men/man_57.jpg"">
      <p class=""person-name"">Friedrich</p>
    ","","","",""
"null","","html-keyboard-response","343","2.0.0","484756","hjxq114zyq2ojua","true","28","weiblich","rechts","Deutsch","","","null","","","","","","<div style=""font-size:60px;"">+</div>","fixation","","",""
"null","","html-keyboard-response","344","2.0.0","485761","hjxq114zyq2ojua","true","28","weiblich","rechts","Deutsch","","","null","","","","","","
      <img class=""person-img"" src=""https://raw.githubusercontent.com/saramff/face-recognition-images/refs/heads/master//men/man_93.jpg"">
      <p class=""person-name"">Lukas</p>
    ","","","",""
"null","","html-keyboard-response","345","2.0.0","486763","hjxq114zyq2ojua","true","28","weiblich","rechts","Deutsch","","","null","","","","","","<div style=""font-size:60px;"">+</div>","fixation","","",""
"null","","html-keyboard-response","346","2.0.0","487767","hjxq114zyq2ojua","true","28","weiblich","rechts","Deutsch","","","null","","","","","","
      <img class=""person-img"" src=""https://raw.githubusercontent.com/saramff/face-recognition-images/refs/heads/master//women/woman_72.jpg"">
      <p class=""person-name"">Leonie</p>
    ","","","",""
"null","","html-keyboard-response","347","2.0.0","488770","hjxq114zyq2ojua","true","28","weiblich","rechts","Deutsch","","","null","","","","","","<div style=""font-size:60px;"">+</div>","fixation","","",""
"null","","html-keyboard-response","348","2.0.0","489774","hjxq114zyq2ojua","true","28","weiblich","rechts","Deutsch","","","null","","","","","","
      <img class=""person-img"" src=""https://raw.githubusercontent.com/saramff/face-recognition-images/refs/heads/master//women/woman_80.jpg"">
      <p class=""person-name"">Veronika</p>
    ","","","",""
"null","","html-keyboard-response","349","2.0.0","490777","hjxq114zyq2ojua","true","28","weiblich","rechts","Deutsch","","","null","","","","","","<div style=""font-size:60px;"">+</div>","fixation","","",""
"null","","html-keyboard-response","350","2.0.0","491781","hjxq114zyq2ojua","true","28","weiblich","rechts","Deutsch","","","null","","","","","","
      <img class=""person-img"" src=""https://raw.githubusercontent.com/saramff/face-recognition-images/refs/heads/master//men/man_68.jpg"">
      <p class=""person-name"">Frederik</p>
    ","","","",""
"null","","html-keyboard-response","351","2.0.0","492783","hjxq114zyq2ojua","true","28","weiblich","rechts","Deutsch","","","null","","","","","","<div style=""font-size:60px;"">+</div>","fixation","","",""
"null","","html-keyboard-response","352","2.0.0","493788","hjxq114zyq2ojua","true","28","weiblich","rechts","Deutsch","","","null","","","","","","
      <img class=""person-img"" src=""https://raw.githubusercontent.com/saramff/face-recognition-images/refs/heads/master//men/man_17.jpg"">
      <p class=""person-name"">Karsten</p>
    ","","","",""
"null","","html-keyboard-response","353","2.0.0","494791","hjxq114zyq2ojua","true","28","weiblich","rechts","Deutsch","","","null","","","","","","<div style=""font-size:60px;"">+</div>","fixation","","",""
"null","","html-keyboard-response","354","2.0.0","495795","hjxq114zyq2ojua","true","28","weiblich","rechts","Deutsch","","","null","","","","","","
      <img class=""person-img"" src=""https://raw.githubusercontent.com/saramff/face-recognition-images/refs/heads/master//women/woman_7.jpg"">
      <p class=""person-name"">Frieda</p>
    ","","","",""
"null","","html-keyboard-response","355","2.0.0","496797","hjxq114zyq2ojua","true","28","weiblich","rechts","Deutsch","","","null","","","","","","<div style=""font-size:60px;"">+</div>","fixation","","",""
"null","","html-keyboard-response","356","2.0.0","497801","hjxq114zyq2ojua","true","28","weiblich","rechts","Deutsch","","","null","","","","","","
      <img class=""person-img"" src=""https://raw.githubusercontent.com/saramff/face-recognition-images/refs/heads/master//women/woman_83.jpg"">
      <p class=""person-name"">Carina</p>
    ","","","",""
"null","","html-keyboard-response","357","2.0.0","498804","hjxq114zyq2ojua","true","28","weiblich","rechts","Deutsch","","","null","","","","","","<div style=""font-size:60px;"">+</div>","fixation","","",""
"null","","html-keyboard-response","358","2.0.0","499808","hjxq114zyq2ojua","true","28","weiblich","rechts","Deutsch","","","null","","","","","","
      <img class=""person-img"" src=""https://raw.githubusercontent.com/saramff/face-recognition-images/refs/heads/master//women/woman_50.jpg"">
      <p class=""person-name"">Marta</p>
    ","","","",""
"null","","html-keyboard-response","359","2.0.0","500810","hjxq114zyq2ojua","true","28","weiblich","rechts","Deutsch","","","null","","","","","","<div style=""font-size:60px;"">+</div>","fixation","","",""
