"rt","url","trial_type","trial_index","plugin_version","time_elapsed","subject","fullscreen","age","gender","handedness","language","success","type","response","question_order","timeout","failed_images","failed_audio","failed_video","stimulus","task","correct_response","correct","correct_response_meaning"
"33503","consentA2.html","external-html","0","2.0.0","33613","aakapu9x9tehf5v","true","18","weiblich","rechts","Deutsch","","","","","","","","","","","","",""
"2341","","fullscreen","1","2.0.0","37060","aakapu9x9tehf5v","true","18","weiblich","rechts","Deutsch","true","","","","","","","","","","","",""
"4632","","survey-text","2","2.0.0","41786","aakapu9x9tehf5v","true","18","weiblich","rechts","Deutsch","","demo","{""Q0"":""18""}","","","","","","","","","",""
"6580","","survey-multi-choice","3","2.0.0","48373","aakapu9x9tehf5v","true","18","weiblich","rechts","Deutsch","","","{""gender"":""weiblich"",""handedness"":""rechts"",""language"":""Deutsch""}","[0,1,2]","","","","","","","","",""
"","","preload","4","2.0.0","52951","aakapu9x9tehf5v","true","18","weiblich","rechts","Deutsch","true","","","","false","[]","[]","[]","","","","",""
"","","preload","5","2.0.0","53512","aakapu9x9tehf5v","true","18","weiblich","rechts","Deutsch","true","","","","false","[]","[]","[]","","","","",""
"","","preload","6","2.0.0","54874","aakapu9x9tehf5v","true","18","weiblich","rechts","Deutsch","true","","","","false","[]","[]","[]","","","","",""
"1926","","html-keyboard-response","7","2.0.0","56803","aakapu9x9tehf5v","true","18","weiblich","rechts","Deutsch","",""," ","","","","","","Willkommen zum Experiment. Drücken Sie eine beliebige Taste, um zu beginnen.","","","",""
"6307","","html-keyboard-response","8","2.0.0","63113","aakapu9x9tehf5v","true","18","weiblich","rechts","Deutsch","",""," ","","","","","","
    <p>In diesem Experiment werden nacheinander automatisch verschiedene Gesichter angezeigt.</p>
    <p>Bitte achten Sie genau auf jedes Gesicht und den dazugehörigen Namen.</p>
    <p>Die Gesichter erscheinen von selbst und Sie brauchen nichts weiter zu tun, außer aufmerksam zu sein.</p>
    <p>Drücken Sie eine beliebige Taste, um zu beginnen, wenn Sie bereit sind.</p>
  ","","","",""
"null","","html-keyboard-response","9","2.0.0","64123","aakapu9x9tehf5v","true","18","weiblich","rechts","Deutsch","","","null","","","","","","<div style=""font-size:60px;"">+</div>","fixation","","",""
"null","","html-keyboard-response","10","2.0.0","65130","aakapu9x9tehf5v","true","18","weiblich","rechts","Deutsch","","","null","","","","","","
      <img class=""person-img"" src=""https://raw.githubusercontent.com/saramff/face-recognition-images/refs/heads/master//men/man_81.jpg"">
      <p class=""person-name"">Guido</p>
    ","","","",""
"null","","html-keyboard-response","11","2.0.0","66136","aakapu9x9tehf5v","true","18","weiblich","rechts","Deutsch","","","null","","","","","","<div style=""font-size:60px;"">+</div>","fixation","","",""
"null","","html-keyboard-response","12","2.0.0","67143","aakapu9x9tehf5v","true","18","weiblich","rechts","Deutsch","","","null","","","","","","
      <img class=""person-img"" src=""https://raw.githubusercontent.com/saramff/face-recognition-images/refs/heads/master//men/man_41.jpg"">
      <p class=""person-name"">Bj&ouml;rn</p>
    ","","","",""
"null","","html-keyboard-response","13","2.0.0","68149","aakapu9x9tehf5v","true","18","weiblich","rechts","Deutsch","","","null","","","","","","<div style=""font-size:60px;"">+</div>","fixation","","",""
"null","","html-keyboard-response","14","2.0.0","69155","aakapu9x9tehf5v","true","18","weiblich","rechts","Deutsch","","","null","","","","","","
      <img class=""person-img"" src=""https://raw.githubusercontent.com/saramff/face-recognition-images/refs/heads/master//women/woman_34.jpg"">
      <p class=""person-name"">Theresa</p>
    ","","","",""
"null","","html-keyboard-response","15","2.0.0","70164","aakapu9x9tehf5v","true","18","weiblich","rechts","Deutsch","","","null","","","","","","<div style=""font-size:60px;"">+</div>","fixation","","",""
"null","","html-keyboard-response","16","2.0.0","71172","aakapu9x9tehf5v","true","18","weiblich","rechts","Deutsch","","","null","","","","","","
      <img class=""person-img"" src=""https://raw.githubusercontent.com/saramff/face-recognition-images/refs/heads/master//men/man_34.jpg"">
      <p class=""person-name"">Theodor</p>
    ","","","",""
"null","","html-keyboard-response","17","2.0.0","72183","aakapu9x9tehf5v","true","18","weiblich","rechts","Deutsch","","","null","","","","","","<div style=""font-size:60px;"">+</div>","fixation","","",""
"null","","html-keyboard-response","18","2.0.0","73188","aakapu9x9tehf5v","true","18","weiblich","rechts","Deutsch","","","null","","","","","","
      <img class=""person-img"" src=""https://raw.githubusercontent.com/saramff/face-recognition-images/refs/heads/master//women/woman_44.jpg"">
      <p class=""person-name"">Ayla</p>
    ","","","",""
"null","","html-keyboard-response","19","2.0.0","74194","aakapu9x9tehf5v","true","18","weiblich","rechts","Deutsch","","","null","","","","","","<div style=""font-size:60px;"">+</div>","fixation","","",""
"null","","html-keyboard-response","20","2.0.0","75202","aakapu9x9tehf5v","true","18","weiblich","rechts","Deutsch","","","null","","","","","","
      <img class=""person-img"" src=""https://raw.githubusercontent.com/saramff/face-recognition-images/refs/heads/master//women/woman_27.jpg"">
      <p class=""person-name"">Frieda</p>
    ","","","",""
"null","","html-keyboard-response","21","2.0.0","76210","aakapu9x9tehf5v","true","18","weiblich","rechts","Deutsch","","","null","","","","","","<div style=""font-size:60px;"">+</div>","fixation","","",""
"null","","html-keyboard-response","22","2.0.0","77215","aakapu9x9tehf5v","true","18","weiblich","rechts","Deutsch","","","null","","","","","","
      <img class=""person-img"" src=""https://raw.githubusercontent.com/saramff/face-recognition-images/refs/heads/master//men/man_74.jpg"">
      <p class=""person-name"">Simon</p>
    ","","","",""
"null","","html-keyboard-response","23","2.0.0","78227","aakapu9x9tehf5v","true","18","weiblich","rechts","Deutsch","","","null","","","","","","<div style=""font-size:60px;"">+</div>","fixation","","",""
"null","","html-keyboard-response","24","2.0.0","79241","aakapu9x9tehf5v","true","18","weiblich","rechts","Deutsch","","","null","","","","","","
      <img class=""person-img"" src=""https://raw.githubusercontent.com/saramff/face-recognition-images/refs/heads/master//men/man_7.jpg"">
      <p class=""person-name"">Markus</p>
    ","","","",""
"null","","html-keyboard-response","25","2.0.0","80248","aakapu9x9tehf5v","true","18","weiblich","rechts","Deutsch","","","null","","","","","","<div style=""font-size:60px;"">+</div>","fixation","","",""
"null","","html-keyboard-response","26","2.0.0","81255","aakapu9x9tehf5v","true","18","weiblich","rechts","Deutsch","","","null","","","","","","
      <img class=""person-img"" src=""https://raw.githubusercontent.com/saramff/face-recognition-images/refs/heads/master//women/woman_73.jpg"">
      <p class=""person-name"">Maja</p>
    ","","","",""
"null","","html-keyboard-response","27","2.0.0","82262","aakapu9x9tehf5v","true","18","weiblich","rechts","Deutsch","","","null","","","","","","<div style=""font-size:60px;"">+</div>","fixation","","",""
"null","","html-keyboard-response","28","2.0.0","83265","aakapu9x9tehf5v","true","18","weiblich","rechts","Deutsch","","","null","","","","","","
      <img class=""person-img"" src=""https://raw.githubusercontent.com/saramff/face-recognition-images/refs/heads/master//women/woman_25.jpg"">
      <p class=""person-name"">Mathilda</p>
    ","","","",""
"null","","html-keyboard-response","29","2.0.0","84273","aakapu9x9tehf5v","true","18","weiblich","rechts","Deutsch","","","null","","","","","","<div style=""font-size:60px;"">+</div>","fixation","","",""
"null","","html-keyboard-response","30","2.0.0","85278","aakapu9x9tehf5v","true","18","weiblich","rechts","Deutsch","","","null","","","","","","
      <img class=""person-img"" src=""https://raw.githubusercontent.com/saramff/face-recognition-images/refs/heads/master//men/man_86.jpg"">
      <p class=""person-name"">Sebastian</p>
    ","","","",""
"null","","html-keyboard-response","31","2.0.0","86285","aakapu9x9tehf5v","true","18","weiblich","rechts","Deutsch","","","null","","","","","","<div style=""font-size:60px;"">+</div>","fixation","","",""
"null","","html-keyboard-response","32","2.0.0","87293","aakapu9x9tehf5v","true","18","weiblich","rechts","Deutsch","","","null","","","","","","
      <img class=""person-img"" src=""https://raw.githubusercontent.com/saramff/face-recognition-images/refs/heads/master//men/man_16.jpg"">
      <p class=""person-name"">Holger</p>
    ","","","",""
"null","","html-keyboard-response","33","2.0.0","88316","aakapu9x9tehf5v","true","18","weiblich","rechts","Deutsch","","","null","","","","","","<div style=""font-size:60px;"">+</div>","fixation","","",""
"null","","html-keyboard-response","34","2.0.0","89322","aakapu9x9tehf5v","true","18","weiblich","rechts","Deutsch","","","null","","","","","","
      <img class=""person-img"" src=""https://raw.githubusercontent.com/saramff/face-recognition-images/refs/heads/master//men/man_11.jpg"">
      <p class=""person-name"">Matthias</p>
    ","","","",""
"null","","html-keyboard-response","35","2.0.0","90328","aakapu9x9tehf5v","true","18","weiblich","rechts","Deutsch","","","null","","","","","","<div style=""font-size:60px;"">+</div>","fixation","","",""
"null","","html-keyboard-response","36","2.0.0","91334","aakapu9x9tehf5v","true","18","weiblich","rechts","Deutsch","","","null","","","","","","
      <img class=""person-img"" src=""https://raw.githubusercontent.com/saramff/face-recognition-images/refs/heads/master//men/man_61.jpg"">
      <p class=""person-name"">Raphael</p>
    ","","","",""
"null","","html-keyboard-response","37","2.0.0","92344","aakapu9x9tehf5v","true","18","weiblich","rechts","Deutsch","","","null","","","","","","<div style=""font-size:60px;"">+</div>","fixation","","",""
"null","","html-keyboard-response","38","2.0.0","93351","aakapu9x9tehf5v","true","18","weiblich","rechts","Deutsch","","","null","","","","","","
      <img class=""person-img"" src=""https://raw.githubusercontent.com/saramff/face-recognition-images/refs/heads/master//men/man_60.jpg"">
      <p class=""person-name"">Axel</p>
    ","","","",""
"null","","html-keyboard-response","39","2.0.0","94359","aakapu9x9tehf5v","true","18","weiblich","rechts","Deutsch","","","null","","","","","","<div style=""font-size:60px;"">+</div>","fixation","","",""
"null","","html-keyboard-response","40","2.0.0","95364","aakapu9x9tehf5v","true","18","weiblich","rechts","Deutsch","","","null","","","","","","
      <img class=""person-img"" src=""https://raw.githubusercontent.com/saramff/face-recognition-images/refs/heads/master//men/man_46.jpg"">
      <p class=""person-name"">Ben</p>
    ","","","",""
"null","","html-keyboard-response","41","2.0.0","96373","aakapu9x9tehf5v","true","18","weiblich","rechts","Deutsch","","","null","","","","","","<div style=""font-size:60px;"">+</div>","fixation","","",""
"null","","html-keyboard-response","42","2.0.0","97378","aakapu9x9tehf5v","true","18","weiblich","rechts","Deutsch","","","null","","","","","","
      <img class=""person-img"" src=""https://raw.githubusercontent.com/saramff/face-recognition-images/refs/heads/master//women/woman_17.jpg"">
      <p class=""person-name"">Annalena</p>
    ","","","",""
"null","","html-keyboard-response","43","2.0.0","98387","aakapu9x9tehf5v","true","18","weiblich","rechts","Deutsch","","","null","","","","","","<div style=""font-size:60px;"">+</div>","fixation","","",""
"null","","html-keyboard-response","44","2.0.0","99393","aakapu9x9tehf5v","true","18","weiblich","rechts","Deutsch","","","null","","","","","","
      <img class=""person-img"" src=""https://raw.githubusercontent.com/saramff/face-recognition-images/refs/heads/master//men/man_92.jpg"">
      <p class=""person-name"">Frank</p>
    ","","","",""
"null","","html-keyboard-response","45","2.0.0","100400","aakapu9x9tehf5v","true","18","weiblich","rechts","Deutsch","","","null","","","","","","<div style=""font-size:60px;"">+</div>","fixation","","",""
"null","","html-keyboard-response","46","2.0.0","101406","aakapu9x9tehf5v","true","18","weiblich","rechts","Deutsch","","","null","","","","","","
      <img class=""person-img"" src=""https://raw.githubusercontent.com/saramff/face-recognition-images/refs/heads/master//women/woman_40.jpg"">
      <p class=""person-name"">Lena</p>
    ","","","",""
"null","","html-keyboard-response","47","2.0.0","102414","aakapu9x9tehf5v","true","18","weiblich","rechts","Deutsch","","","null","","","","","","<div style=""font-size:60px;"">+</div>","fixation","","",""
"null","","html-keyboard-response","48","2.0.0","103420","aakapu9x9tehf5v","true","18","weiblich","rechts","Deutsch","","","null","","","","","","
      <img class=""person-img"" src=""https://raw.githubusercontent.com/saramff/face-recognition-images/refs/heads/master//women/woman_29.jpg"">
      <p class=""person-name"">Ida</p>
    ","","","",""
"null","","html-keyboard-response","49","2.0.0","104427","aakapu9x9tehf5v","true","18","weiblich","rechts","Deutsch","","","null","","","","","","<div style=""font-size:60px;"">+</div>","fixation","","",""
"null","","html-keyboard-response","50","2.0.0","105433","aakapu9x9tehf5v","true","18","weiblich","rechts","Deutsch","","","null","","","","","","
      <img class=""person-img"" src=""https://raw.githubusercontent.com/saramff/face-recognition-images/refs/heads/master//men/man_21.jpg"">
      <p class=""person-name"">Albert</p>
    ","","","",""
"null","","html-keyboard-response","51","2.0.0","106438","aakapu9x9tehf5v","true","18","weiblich","rechts","Deutsch","","","null","","","","","","<div style=""font-size:60px;"">+</div>","fixation","","",""
"null","","html-keyboard-response","52","2.0.0","107443","aakapu9x9tehf5v","true","18","weiblich","rechts","Deutsch","","","null","","","","","","
      <img class=""person-img"" src=""https://raw.githubusercontent.com/saramff/face-recognition-images/refs/heads/master//men/man_95.jpg"">
      <p class=""person-name"">Julian</p>
    ","","","",""
"null","","html-keyboard-response","53","2.0.0","108450","aakapu9x9tehf5v","true","18","weiblich","rechts","Deutsch","","","null","","","","","","<div style=""font-size:60px;"">+</div>","fixation","","",""
"null","","html-keyboard-response","54","2.0.0","109457","aakapu9x9tehf5v","true","18","weiblich","rechts","Deutsch","","","null","","","","","","
      <img class=""person-img"" src=""https://raw.githubusercontent.com/saramff/face-recognition-images/refs/heads/master//women/woman_94.jpg"">
      <p class=""person-name"">Viktoria</p>
    ","","","",""
"null","","html-keyboard-response","55","2.0.0","110465","aakapu9x9tehf5v","true","18","weiblich","rechts","Deutsch","","","null","","","","","","<div style=""font-size:60px;"">+</div>","fixation","","",""
"null","","html-keyboard-response","56","2.0.0","111470","aakapu9x9tehf5v","true","18","weiblich","rechts","Deutsch","","","null","","","","","","
      <img class=""person-img"" src=""https://raw.githubusercontent.com/saramff/face-recognition-images/refs/heads/master//women/woman_85.jpg"">
      <p class=""person-name"">Alma</p>
    ","","","",""
"null","","html-keyboard-response","57","2.0.0","112479","aakapu9x9tehf5v","true","18","weiblich","rechts","Deutsch","","","null","","","","","","<div style=""font-size:60px;"">+</div>","fixation","","",""
"null","","html-keyboard-response","58","2.0.0","113484","aakapu9x9tehf5v","true","18","weiblich","rechts","Deutsch","","","null","","","","","","
      <img class=""person-img"" src=""https://raw.githubusercontent.com/saramff/face-recognition-images/refs/heads/master//men/man_93.jpg"">
      <p class=""person-name"">Aaron</p>
    ","","","",""
"null","","html-keyboard-response","59","2.0.0","114491","aakapu9x9tehf5v","true","18","weiblich","rechts","Deutsch","","","null","","","","","","<div style=""font-size:60px;"">+</div>","fixation","","",""
"null","","html-keyboard-response","60","2.0.0","115497","aakapu9x9tehf5v","true","18","weiblich","rechts","Deutsch","","","null","","","","","","
      <img class=""person-img"" src=""https://raw.githubusercontent.com/saramff/face-recognition-images/refs/heads/master//women/woman_68.jpg"">
      <p class=""person-name"">Nicole</p>
    ","","","",""
"null","","html-keyboard-response","61","2.0.0","116503","aakapu9x9tehf5v","true","18","weiblich","rechts","Deutsch","","","null","","","","","","<div style=""font-size:60px;"">+</div>","fixation","","",""
"null","","html-keyboard-response","62","2.0.0","117512","aakapu9x9tehf5v","true","18","weiblich","rechts","Deutsch","","","null","","","","","","
      <img class=""person-img"" src=""https://raw.githubusercontent.com/saramff/face-recognition-images/refs/heads/master//men/man_35.jpg"">
      <p class=""person-name"">Achim</p>
    ","","","",""
"null","","html-keyboard-response","63","2.0.0","118520","aakapu9x9tehf5v","true","18","weiblich","rechts","Deutsch","","","null","","","","","","<div style=""font-size:60px;"">+</div>","fixation","","",""
"null","","html-keyboard-response","64","2.0.0","119526","aakapu9x9tehf5v","true","18","weiblich","rechts","Deutsch","","","null","","","","","","
      <img class=""person-img"" src=""https://raw.githubusercontent.com/saramff/face-recognition-images/refs/heads/master//women/woman_56.jpg"">
      <p class=""person-name"">Josephine</p>
    ","","","",""
"null","","html-keyboard-response","65","2.0.0","120534","aakapu9x9tehf5v","true","18","weiblich","rechts","Deutsch","","","null","","","","","","<div style=""font-size:60px;"">+</div>","fixation","","",""
"null","","html-keyboard-response","66","2.0.0","121539","aakapu9x9tehf5v","true","18","weiblich","rechts","Deutsch","","","null","","","","","","
      <img class=""person-img"" src=""https://raw.githubusercontent.com/saramff/face-recognition-images/refs/heads/master//men/man_75.jpg"">
      <p class=""person-name"">Thomas</p>
    ","","","",""
"null","","html-keyboard-response","67","2.0.0","122546","aakapu9x9tehf5v","true","18","weiblich","rechts","Deutsch","","","null","","","","","","<div style=""font-size:60px;"">+</div>","fixation","","",""
"null","","html-keyboard-response","68","2.0.0","123551","aakapu9x9tehf5v","true","18","weiblich","rechts","Deutsch","","","null","","","","","","
      <img class=""person-img"" src=""https://raw.githubusercontent.com/saramff/face-recognition-images/refs/heads/master//women/woman_80.jpg"">
      <p class=""person-name"">Daniela</p>
    ","","","",""
"null","","html-keyboard-response","69","2.0.0","124560","aakapu9x9tehf5v","true","18","weiblich","rechts","Deutsch","","","null","","","","","","<div style=""font-size:60px;"">+</div>","fixation","","",""
"null","","html-keyboard-response","70","2.0.0","125566","aakapu9x9tehf5v","true","18","weiblich","rechts","Deutsch","","","null","","","","","","
      <img class=""person-img"" src=""https://raw.githubusercontent.com/saramff/face-recognition-images/refs/heads/master//men/man_67.jpg"">
      <p class=""person-name"">Joel</p>
    ","","","",""
"null","","html-keyboard-response","71","2.0.0","126572","aakapu9x9tehf5v","true","18","weiblich","rechts","Deutsch","","","null","","","","","","<div style=""font-size:60px;"">+</div>","fixation","","",""
"null","","html-keyboard-response","72","2.0.0","127579","aakapu9x9tehf5v","true","18","weiblich","rechts","Deutsch","","","null","","","","","","
      <img class=""person-img"" src=""https://raw.githubusercontent.com/saramff/face-recognition-images/refs/heads/master//men/man_36.jpg"">
      <p class=""person-name"">Ren&eacute;</p>
    ","","","",""
"null","","html-keyboard-response","73","2.0.0","128586","aakapu9x9tehf5v","true","18","weiblich","rechts","Deutsch","","","null","","","","","","<div style=""font-size:60px;"">+</div>","fixation","","",""
"null","","html-keyboard-response","74","2.0.0","129593","aakapu9x9tehf5v","true","18","weiblich","rechts","Deutsch","","","null","","","","","","
      <img class=""person-img"" src=""https://raw.githubusercontent.com/saramff/face-recognition-images/refs/heads/master//women/woman_26.jpg"">
      <p class=""person-name"">Yara</p>
    ","","","",""
"null","","html-keyboard-response","75","2.0.0","130599","aakapu9x9tehf5v","true","18","weiblich","rechts","Deutsch","","","null","","","","","","<div style=""font-size:60px;"">+</div>","fixation","","",""
"null","","html-keyboard-response","76","2.0.0","131606","aakapu9x9tehf5v","true","18","weiblich","rechts","Deutsch","","","null","","","","","","
      <img class=""person-img"" src=""https://raw.githubusercontent.com/saramff/face-recognition-images/refs/heads/master//women/woman_37.jpg"">
      <p class=""person-name"">Selma</p>
    ","","","",""
"null","","html-keyboard-response","77","2.0.0","132613","aakapu9x9tehf5v","true","18","weiblich","rechts","Deutsch","","","null","","","","","","<div style=""font-size:60px;"">+</div>","fixation","","",""
"null","","html-keyboard-response","78","2.0.0","133619","aakapu9x9tehf5v","true","18","weiblich","rechts","Deutsch","","","null","","","","","","
      <img class=""person-img"" src=""https://raw.githubusercontent.com/saramff/face-recognition-images/refs/heads/master//women/woman_42.jpg"">
      <p class=""person-name"">Sabrina</p>
    ","","","",""
"null","","html-keyboard-response","79","2.0.0","134629","aakapu9x9tehf5v","true","18","weiblich","rechts","Deutsch","","","null","","","","","","<div style=""font-size:60px;"">+</div>","fixation","","",""
"null","","html-keyboard-response","80","2.0.0","135634","aakapu9x9tehf5v","true","18","weiblich","rechts","Deutsch","","","null","","","","","","
      <img class=""person-img"" src=""https://raw.githubusercontent.com/saramff/face-recognition-images/refs/heads/master//men/man_40.jpg"">
      <p class=""person-name"">Tobias</p>
    ","","","",""
"null","","html-keyboard-response","81","2.0.0","136639","aakapu9x9tehf5v","true","18","weiblich","rechts","Deutsch","","","null","","","","","","<div style=""font-size:60px;"">+</div>","fixation","","",""
"null","","html-keyboard-response","82","2.0.0","137645","aakapu9x9tehf5v","true","18","weiblich","rechts","Deutsch","","","null","","","","","","
      <img class=""person-img"" src=""https://raw.githubusercontent.com/saramff/face-recognition-images/refs/heads/master//women/woman_71.jpg"">
      <p class=""person-name"">Laura</p>
    ","","","",""
"null","","html-keyboard-response","83","2.0.0","138653","aakapu9x9tehf5v","true","18","weiblich","rechts","Deutsch","","","null","","","","","","<div style=""font-size:60px;"">+</div>","fixation","","",""
"null","","html-keyboard-response","84","2.0.0","139660","aakapu9x9tehf5v","true","18","weiblich","rechts","Deutsch","","","null","","","","","","
      <img class=""person-img"" src=""https://raw.githubusercontent.com/saramff/face-recognition-images/refs/heads/master//men/man_32.jpg"">
      <p class=""person-name"">Steffen</p>
    ","","","",""
"null","","html-keyboard-response","85","2.0.0","140667","aakapu9x9tehf5v","true","18","weiblich","rechts","Deutsch","","","null","","","","","","<div style=""font-size:60px;"">+</div>","fixation","","",""
"null","","html-keyboard-response","86","2.0.0","141673","aakapu9x9tehf5v","true","18","weiblich","rechts","Deutsch","","","null","","","","","","
      <img class=""person-img"" src=""https://raw.githubusercontent.com/saramff/face-recognition-images/refs/heads/master//men/man_27.jpg"">
      <p class=""person-name"">Heiko</p>
    ","","","",""
"null","","html-keyboard-response","87","2.0.0","142680","aakapu9x9tehf5v","true","18","weiblich","rechts","Deutsch","","","null","","","","","","<div style=""font-size:60px;"">+</div>","fixation","","",""
"null","","html-keyboard-response","88","2.0.0","143685","aakapu9x9tehf5v","true","18","weiblich","rechts","Deutsch","","","null","","","","","","
      <img class=""person-img"" src=""https://raw.githubusercontent.com/saramff/face-recognition-images/refs/heads/master//women/woman_50.jpg"">
      <p class=""person-name"">Katharina</p>
    ","","","",""
"null","","html-keyboard-response","89","2.0.0","144692","aakapu9x9tehf5v","true","18","weiblich","rechts","Deutsch","","","null","","","","","","<div style=""font-size:60px;"">+</div>","fixation","","",""
"null","","html-keyboard-response","90","2.0.0","145697","aakapu9x9tehf5v","true","18","weiblich","rechts","Deutsch","","","null","","","","","","
      <img class=""person-img"" src=""https://raw.githubusercontent.com/saramff/face-recognition-images/refs/heads/master//men/man_70.jpg"">
      <p class=""person-name"">Tristan</p>
    ","","","",""
"null","","html-keyboard-response","91","2.0.0","146705","aakapu9x9tehf5v","true","18","weiblich","rechts","Deutsch","","","null","","","","","","<div style=""font-size:60px;"">+</div>","fixation","","",""
"null","","html-keyboard-response","92","2.0.0","147709","aakapu9x9tehf5v","true","18","weiblich","rechts","Deutsch","","","null","","","","","","
      <img class=""person-img"" src=""https://raw.githubusercontent.com/saramff/face-recognition-images/refs/heads/master//women/woman_3.jpg"">
      <p class=""person-name"">Hannah</p>
    ","","","",""
"null","","html-keyboard-response","93","2.0.0","148718","aakapu9x9tehf5v","true","18","weiblich","rechts","Deutsch","","","null","","","","","","<div style=""font-size:60px;"">+</div>","fixation","","",""
"null","","html-keyboard-response","94","2.0.0","149722","aakapu9x9tehf5v","true","18","weiblich","rechts","Deutsch","","","null","","","","","","
      <img class=""person-img"" src=""https://raw.githubusercontent.com/saramff/face-recognition-images/refs/heads/master//women/woman_54.jpg"">
      <p class=""person-name"">Carolin</p>
    ","","","",""
"null","","html-keyboard-response","95","2.0.0","150727","aakapu9x9tehf5v","true","18","weiblich","rechts","Deutsch","","","null","","","","","","<div style=""font-size:60px;"">+</div>","fixation","","",""
"null","","html-keyboard-response","96","2.0.0","151734","aakapu9x9tehf5v","true","18","weiblich","rechts","Deutsch","","","null","","","","","","
      <img class=""person-img"" src=""https://raw.githubusercontent.com/saramff/face-recognition-images/refs/heads/master//women/woman_78.jpg"">
      <p class=""person-name"">Anouk</p>
    ","","","",""
"null","","html-keyboard-response","97","2.0.0","152743","aakapu9x9tehf5v","true","18","weiblich","rechts","Deutsch","","","null","","","","","","<div style=""font-size:60px;"">+</div>","fixation","","",""
"null","","html-keyboard-response","98","2.0.0","153748","aakapu9x9tehf5v","true","18","weiblich","rechts","Deutsch","","","null","","","","","","
      <img class=""person-img"" src=""https://raw.githubusercontent.com/saramff/face-recognition-images/refs/heads/master//women/woman_66.jpg"">
      <p class=""person-name"">Pia</p>
    ","","","",""
"null","","html-keyboard-response","99","2.0.0","154754","aakapu9x9tehf5v","true","18","weiblich","rechts","Deutsch","","","null","","","","","","<div style=""font-size:60px;"">+</div>","fixation","","",""
"null","","html-keyboard-response","100","2.0.0","155760","aakapu9x9tehf5v","true","18","weiblich","rechts","Deutsch","","","null","","","","","","
      <img class=""person-img"" src=""https://raw.githubusercontent.com/saramff/face-recognition-images/refs/heads/master//men/man_64.jpg"">
      <p class=""person-name"">Oskar</p>
    ","","","",""
"null","","html-keyboard-response","101","2.0.0","156768","aakapu9x9tehf5v","true","18","weiblich","rechts","Deutsch","","","null","","","","","","<div style=""font-size:60px;"">+</div>","fixation","","",""
"null","","html-keyboard-response","102","2.0.0","157776","aakapu9x9tehf5v","true","18","weiblich","rechts","Deutsch","","","null","","","","","","
      <img class=""person-img"" src=""https://raw.githubusercontent.com/saramff/face-recognition-images/refs/heads/master//men/man_50.jpg"">
      <p class=""person-name"">Gabriel</p>
    ","","","",""
"null","","html-keyboard-response","103","2.0.0","158782","aakapu9x9tehf5v","true","18","weiblich","rechts","Deutsch","","","null","","","","","","<div style=""font-size:60px;"">+</div>","fixation","","",""
"null","","html-keyboard-response","104","2.0.0","159786","aakapu9x9tehf5v","true","18","weiblich","rechts","Deutsch","","","null","","","","","","
      <img class=""person-img"" src=""https://raw.githubusercontent.com/saramff/face-recognition-images/refs/heads/master//men/man_87.jpg"">
      <p class=""person-name"">Clemens</p>
    ","","","",""
"null","","html-keyboard-response","105","2.0.0","160793","aakapu9x9tehf5v","true","18","weiblich","rechts","Deutsch","","","null","","","","","","<div style=""font-size:60px;"">+</div>","fixation","","",""
"null","","html-keyboard-response","106","2.0.0","161800","aakapu9x9tehf5v","true","18","weiblich","rechts","Deutsch","","","null","","","","","","
      <img class=""person-img"" src=""https://raw.githubusercontent.com/saramff/face-recognition-images/refs/heads/master//women/woman_74.jpg"">
      <p class=""person-name"">Isabel</p>
    ","","","",""
"null","","html-keyboard-response","107","2.0.0","162807","aakapu9x9tehf5v","true","18","weiblich","rechts","Deutsch","","","null","","","","","","<div style=""font-size:60px;"">+</div>","fixation","","",""
"null","","html-keyboard-response","108","2.0.0","163813","aakapu9x9tehf5v","true","18","weiblich","rechts","Deutsch","","","null","","","","","","
      <img class=""person-img"" src=""https://raw.githubusercontent.com/saramff/face-recognition-images/refs/heads/master//men/man_83.jpg"">
      <p class=""person-name"">Fabian</p>
    ","","","",""
"null","","html-keyboard-response","109","2.0.0","164820","aakapu9x9tehf5v","true","18","weiblich","rechts","Deutsch","","","null","","","","","","<div style=""font-size:60px;"">+</div>","fixation","","",""
"null","","html-keyboard-response","110","2.0.0","165827","aakapu9x9tehf5v","true","18","weiblich","rechts","Deutsch","","","null","","","","","","
      <img class=""person-img"" src=""https://raw.githubusercontent.com/saramff/face-recognition-images/refs/heads/master//women/woman_59.jpg"">
      <p class=""person-name"">Marla</p>
    ","","","",""
"null","","html-keyboard-response","111","2.0.0","166833","aakapu9x9tehf5v","true","18","weiblich","rechts","Deutsch","","","null","","","","","","<div style=""font-size:60px;"">+</div>","fixation","","",""
"null","","html-keyboard-response","112","2.0.0","167840","aakapu9x9tehf5v","true","18","weiblich","rechts","Deutsch","","","null","","","","","","
      <img class=""person-img"" src=""https://raw.githubusercontent.com/saramff/face-recognition-images/refs/heads/master//women/woman_12.jpg"">
      <p class=""person-name"">Lucie</p>
    ","","","",""
"null","","html-keyboard-response","113","2.0.0","168848","aakapu9x9tehf5v","true","18","weiblich","rechts","Deutsch","","","null","","","","","","<div style=""font-size:60px;"">+</div>","fixation","","",""
"null","","html-keyboard-response","114","2.0.0","169853","aakapu9x9tehf5v","true","18","weiblich","rechts","Deutsch","","","null","","","","","","
      <img class=""person-img"" src=""https://raw.githubusercontent.com/saramff/face-recognition-images/refs/heads/master//men/man_66.jpg"">
      <p class=""person-name"">Rolf</p>
    ","","","",""
"null","","html-keyboard-response","115","2.0.0","170861","aakapu9x9tehf5v","true","18","weiblich","rechts","Deutsch","","","null","","","","","","<div style=""font-size:60px;"">+</div>","fixation","","",""
"null","","html-keyboard-response","116","2.0.0","171866","aakapu9x9tehf5v","true","18","weiblich","rechts","Deutsch","","","null","","","","","","
      <img class=""person-img"" src=""https://raw.githubusercontent.com/saramff/face-recognition-images/refs/heads/master//women/woman_24.jpg"">
      <p class=""person-name"">Ariane</p>
    ","","","",""
"null","","html-keyboard-response","117","2.0.0","172871","aakapu9x9tehf5v","true","18","weiblich","rechts","Deutsch","","","null","","","","","","<div style=""font-size:60px;"">+</div>","fixation","","",""
"null","","html-keyboard-response","118","2.0.0","173879","aakapu9x9tehf5v","true","18","weiblich","rechts","Deutsch","","","null","","","","","","
      <img class=""person-img"" src=""https://raw.githubusercontent.com/saramff/face-recognition-images/refs/heads/master//women/woman_77.jpg"">
      <p class=""person-name"">Celine</p>
    ","","","",""
"null","","html-keyboard-response","119","2.0.0","174887","aakapu9x9tehf5v","true","18","weiblich","rechts","Deutsch","","","null","","","","","","<div style=""font-size:60px;"">+</div>","fixation","","",""
"null","","html-keyboard-response","120","2.0.0","175891","aakapu9x9tehf5v","true","18","weiblich","rechts","Deutsch","","","null","","","","","","
      <img class=""person-img"" src=""https://raw.githubusercontent.com/saramff/face-recognition-images/refs/heads/master//men/man_82.jpg"">
      <p class=""person-name"">Marcel</p>
    ","","","",""
"null","","html-keyboard-response","121","2.0.0","176898","aakapu9x9tehf5v","true","18","weiblich","rechts","Deutsch","","","null","","","","","","<div style=""font-size:60px;"">+</div>","fixation","","",""
"null","","html-keyboard-response","122","2.0.0","177903","aakapu9x9tehf5v","true","18","weiblich","rechts","Deutsch","","","null","","","","","","
      <img class=""person-img"" src=""https://raw.githubusercontent.com/saramff/face-recognition-images/refs/heads/master//men/man_30.jpg"">
      <p class=""person-name"">Sven</p>
    ","","","",""
"null","","html-keyboard-response","123","2.0.0","178912","aakapu9x9tehf5v","true","18","weiblich","rechts","Deutsch","","","null","","","","","","<div style=""font-size:60px;"">+</div>","fixation","","",""
"null","","html-keyboard-response","124","2.0.0","179916","aakapu9x9tehf5v","true","18","weiblich","rechts","Deutsch","","","null","","","","","","
      <img class=""person-img"" src=""https://raw.githubusercontent.com/saramff/face-recognition-images/refs/heads/master//men/man_20.jpg"">
      <p class=""person-name"">Gereon</p>
    ","","","",""
"null","","html-keyboard-response","125","2.0.0","180920","aakapu9x9tehf5v","true","18","weiblich","rechts","Deutsch","","","null","","","","","","<div style=""font-size:60px;"">+</div>","fixation","","",""
"null","","html-keyboard-response","126","2.0.0","182052","aakapu9x9tehf5v","true","18","weiblich","rechts","Deutsch","","","null","","","","","","
      <img class=""person-img"" src=""https://raw.githubusercontent.com/saramff/face-recognition-images/refs/heads/master//men/man_65.jpg"">
      <p class=""person-name"">Jonas</p>
    ","","","",""
"null","","html-keyboard-response","127","2.0.0","183059","aakapu9x9tehf5v","true","18","weiblich","rechts","Deutsch","","","null","","","","","","<div style=""font-size:60px;"">+</div>","fixation","","",""
"null","","html-keyboard-response","128","2.0.0","184067","aakapu9x9tehf5v","true","18","weiblich","rechts","Deutsch","","","null","","","","","","
      <img class=""person-img"" src=""https://raw.githubusercontent.com/saramff/face-recognition-images/refs/heads/master//women/woman_51.jpg"">
      <p class=""person-name"">Verena</p>
    ","","","",""
"null","","html-keyboard-response","129","2.0.0","185074","aakapu9x9tehf5v","true","18","weiblich","rechts","Deutsch","","","null","","","","","","<div style=""font-size:60px;"">+</div>","fixation","","",""
"null","","html-keyboard-response","130","2.0.0","186080","aakapu9x9tehf5v","true","18","weiblich","rechts","Deutsch","","","null","","","","","","
      <img class=""person-img"" src=""https://raw.githubusercontent.com/saramff/face-recognition-images/refs/heads/master//women/woman_70.jpg"">
      <p class=""person-name"">Marie</p>
    ","","","",""
"null","","html-keyboard-response","131","2.0.0","187088","aakapu9x9tehf5v","true","18","weiblich","rechts","Deutsch","","","null","","","","","","<div style=""font-size:60px;"">+</div>","fixation","","",""
"null","","html-keyboard-response","132","2.0.0","188095","aakapu9x9tehf5v","true","18","weiblich","rechts","Deutsch","","","null","","","","","","
      <img class=""person-img"" src=""https://raw.githubusercontent.com/saramff/face-recognition-images/refs/heads/master//women/woman_96.jpg"">
      <p class=""person-name"">Bianca</p>
    ","","","",""
"null","","html-keyboard-response","133","2.0.0","189102","aakapu9x9tehf5v","true","18","weiblich","rechts","Deutsch","","","null","","","","","","<div style=""font-size:60px;"">+</div>","fixation","","",""
"null","","html-keyboard-response","134","2.0.0","190106","aakapu9x9tehf5v","true","18","weiblich","rechts","Deutsch","","","null","","","","","","
      <img class=""person-img"" src=""https://raw.githubusercontent.com/saramff/face-recognition-images/refs/heads/master//women/woman_39.jpg"">
      <p class=""person-name"">Olivia</p>
    ","","","",""
"null","","html-keyboard-response","135","2.0.0","191112","aakapu9x9tehf5v","true","18","weiblich","rechts","Deutsch","","","null","","","","","","<div style=""font-size:60px;"">+</div>","fixation","","",""
"null","","html-keyboard-response","136","2.0.0","192119","aakapu9x9tehf5v","true","18","weiblich","rechts","Deutsch","","","null","","","","","","
      <img class=""person-img"" src=""https://raw.githubusercontent.com/saramff/face-recognition-images/refs/heads/master//men/man_28.jpg"">
      <p class=""person-name"">Kai</p>
    ","","","",""
"null","","html-keyboard-response","137","2.0.0","193124","aakapu9x9tehf5v","true","18","weiblich","rechts","Deutsch","","","null","","","","","","<div style=""font-size:60px;"">+</div>","fixation","","",""
"null","","html-keyboard-response","138","2.0.0","194129","aakapu9x9tehf5v","true","18","weiblich","rechts","Deutsch","","","null","","","","","","
      <img class=""person-img"" src=""https://raw.githubusercontent.com/saramff/face-recognition-images/refs/heads/master//women/woman_7.jpg"">
      <p class=""person-name"">Lisa</p>
    ","","","",""
"null","","html-keyboard-response","139","2.0.0","195136","aakapu9x9tehf5v","true","18","weiblich","rechts","Deutsch","","","null","","","","","","<div style=""font-size:60px;"">+</div>","fixation","","",""
"null","","html-keyboard-response","140","2.0.0","196140","aakapu9x9tehf5v","true","18","weiblich","rechts","Deutsch","","","null","","","","","","
      <img class=""person-img"" src=""https://raw.githubusercontent.com/saramff/face-recognition-images/refs/heads/master//women/woman_19.jpg"">
      <p class=""person-name"">Sarah</p>
    ","","","",""
"null","","html-keyboard-response","141","2.0.0","197146","aakapu9x9tehf5v","true","18","weiblich","rechts","Deutsch","","","null","","","","","","<div style=""font-size:60px;"">+</div>","fixation","","",""
"null","","html-keyboard-response","142","2.0.0","198152","aakapu9x9tehf5v","true","18","weiblich","rechts","Deutsch","","","null","","","","","","
      <img class=""person-img"" src=""https://raw.githubusercontent.com/saramff/face-recognition-images/refs/heads/master//women/woman_83.jpg"">
      <p class=""person-name"">Alina</p>
    ","","","",""
"null","","html-keyboard-response","143","2.0.0","199160","aakapu9x9tehf5v","true","18","weiblich","rechts","Deutsch","","","null","","","","","","<div style=""font-size:60px;"">+</div>","fixation","","",""
"null","","html-keyboard-response","144","2.0.0","200166","aakapu9x9tehf5v","true","18","weiblich","rechts","Deutsch","","","null","","","","","","
      <img class=""person-img"" src=""https://raw.githubusercontent.com/saramff/face-recognition-images/refs/heads/master//women/woman_43.jpg"">
      <p class=""person-name"">Freya</p>
    ","","","",""
"null","","html-keyboard-response","145","2.0.0","201173","aakapu9x9tehf5v","true","18","weiblich","rechts","Deutsch","","","null","","","","","","<div style=""font-size:60px;"">+</div>","fixation","","",""
"null","","html-keyboard-response","146","2.0.0","202178","aakapu9x9tehf5v","true","18","weiblich","rechts","Deutsch","","","null","","","","","","
      <img class=""person-img"" src=""https://raw.githubusercontent.com/saramff/face-recognition-images/refs/heads/master//women/woman_48.jpg"">
      <p class=""person-name"">Leonie</p>
    ","","","",""
"null","","html-keyboard-response","147","2.0.0","203184","aakapu9x9tehf5v","true","18","weiblich","rechts","Deutsch","","","null","","","","","","<div style=""font-size:60px;"">+</div>","fixation","","",""
"null","","html-keyboard-response","148","2.0.0","204190","aakapu9x9tehf5v","true","18","weiblich","rechts","Deutsch","","","null","","","","","","
      <img class=""person-img"" src=""https://raw.githubusercontent.com/saramff/face-recognition-images/refs/heads/master//women/woman_23.jpg"">
      <p class=""person-name"">Carla</p>
    ","","","",""
"null","","html-keyboard-response","149","2.0.0","205195","aakapu9x9tehf5v","true","18","weiblich","rechts","Deutsch","","","null","","","","","","<div style=""font-size:60px;"">+</div>","fixation","","",""
"null","","html-keyboard-response","150","2.0.0","206202","aakapu9x9tehf5v","true","18","weiblich","rechts","Deutsch","","","null","","","","","","
      <img class=""person-img"" src=""https://raw.githubusercontent.com/saramff/face-recognition-images/refs/heads/master//men/man_78.jpg"">
      <p class=""person-name"">Thorsten</p>
    ","","","",""
"null","","html-keyboard-response","151","2.0.0","207207","aakapu9x9tehf5v","true","18","weiblich","rechts","Deutsch","","","null","","","","","","<div style=""font-size:60px;"">+</div>","fixation","","",""
"null","","html-keyboard-response","152","2.0.0","208213","aakapu9x9tehf5v","true","18","weiblich","rechts","Deutsch","","","null","","","","","","
      <img class=""person-img"" src=""https://raw.githubusercontent.com/saramff/face-recognition-images/refs/heads/master//men/man_1.jpg"">
      <p class=""person-name"">Peter</p>
    ","","","",""
"null","","html-keyboard-response","153","2.0.0","209219","aakapu9x9tehf5v","true","18","weiblich","rechts","Deutsch","","","null","","","","","","<div style=""font-size:60px;"">+</div>","fixation","","",""
"null","","html-keyboard-response","154","2.0.0","210224","aakapu9x9tehf5v","true","18","weiblich","rechts","Deutsch","","","null","","","","","","
      <img class=""person-img"" src=""https://raw.githubusercontent.com/saramff/face-recognition-images/refs/heads/master//men/man_51.jpg"">
      <p class=""person-name"">Artur</p>
    ","","","",""
"null","","html-keyboard-response","155","2.0.0","211232","aakapu9x9tehf5v","true","18","weiblich","rechts","Deutsch","","","null","","","","","","<div style=""font-size:60px;"">+</div>","fixation","","",""
"null","","html-keyboard-response","156","2.0.0","212237","aakapu9x9tehf5v","true","18","weiblich","rechts","Deutsch","","","null","","","","","","
      <img class=""person-img"" src=""https://raw.githubusercontent.com/saramff/face-recognition-images/refs/heads/master//women/woman_62.jpg"">
      <p class=""person-name"">Ariane</p>
    ","","","",""
"null","","html-keyboard-response","157","2.0.0","213245","aakapu9x9tehf5v","true","18","weiblich","rechts","Deutsch","","","null","","","","","","<div style=""font-size:60px;"">+</div>","fixation","","",""
"null","","html-keyboard-response","158","2.0.0","214250","aakapu9x9tehf5v","true","18","weiblich","rechts","Deutsch","","","null","","","","","","
      <img class=""person-img"" src=""https://raw.githubusercontent.com/saramff/face-recognition-images/refs/heads/master//men/man_48.jpg"">
      <p class=""person-name"">Felix</p>
    ","","","",""
"null","","html-keyboard-response","159","2.0.0","215257","aakapu9x9tehf5v","true","18","weiblich","rechts","Deutsch","","","null","","","","","","<div style=""font-size:60px;"">+</div>","fixation","","",""
"null","","html-keyboard-response","160","2.0.0","216260","aakapu9x9tehf5v","true","18","weiblich","rechts","Deutsch","","","null","","","","","","
      <img class=""person-img"" src=""https://raw.githubusercontent.com/saramff/face-recognition-images/refs/heads/master//men/man_55.jpg"">
      <p class=""person-name"">Paul</p>
    ","","","",""
"null","","html-keyboard-response","161","2.0.0","217269","aakapu9x9tehf5v","true","18","weiblich","rechts","Deutsch","","","null","","","","","","<div style=""font-size:60px;"">+</div>","fixation","","",""
"null","","html-keyboard-response","162","2.0.0","218272","aakapu9x9tehf5v","true","18","weiblich","rechts","Deutsch","","","null","","","","","","
      <img class=""person-img"" src=""https://raw.githubusercontent.com/saramff/face-recognition-images/refs/heads/master//women/woman_76.jpg"">
      <p class=""person-name"">Nora</p>
    ","","","",""
"null","","html-keyboard-response","163","2.0.0","219280","aakapu9x9tehf5v","true","18","weiblich","rechts","Deutsch","","","null","","","","","","<div style=""font-size:60px;"">+</div>","fixation","","",""
"null","","html-keyboard-response","164","2.0.0","220287","aakapu9x9tehf5v","true","18","weiblich","rechts","Deutsch","","","null","","","","","","
      <img class=""person-img"" src=""https://raw.githubusercontent.com/saramff/face-recognition-images/refs/heads/master//women/woman_28.jpg"">
      <p class=""person-name"">Klara</p>
    ","","","",""
"null","","html-keyboard-response","165","2.0.0","221294","aakapu9x9tehf5v","true","18","weiblich","rechts","Deutsch","","","null","","","","","","<div style=""font-size:60px;"">+</div>","fixation","","",""
"null","","html-keyboard-response","166","2.0.0","222299","aakapu9x9tehf5v","true","18","weiblich","rechts","Deutsch","","","null","","","","","","
      <img class=""person-img"" src=""https://raw.githubusercontent.com/saramff/face-recognition-images/refs/heads/master//men/man_91.jpg"">
      <p class=""person-name"">Olaf</p>
    ","","","",""
"null","","html-keyboard-response","167","2.0.0","223306","aakapu9x9tehf5v","true","18","weiblich","rechts","Deutsch","","","null","","","","","","<div style=""font-size:60px;"">+</div>","fixation","","",""
"null","","html-keyboard-response","168","2.0.0","224310","aakapu9x9tehf5v","true","18","weiblich","rechts","Deutsch","","","null","","","","","","
      <img class=""person-img"" src=""https://raw.githubusercontent.com/saramff/face-recognition-images/refs/heads/master//men/man_19.jpg"">
      <p class=""person-name"">Philipp</p>
    ","","","",""
"null","","html-keyboard-response","169","2.0.0","225317","aakapu9x9tehf5v","true","18","weiblich","rechts","Deutsch","","","null","","","","","","<div style=""font-size:60px;"">+</div>","fixation","","",""
"null","","html-keyboard-response","170","2.0.0","226321","aakapu9x9tehf5v","true","18","weiblich","rechts","Deutsch","","","null","","","","","","
      <img class=""person-img"" src=""https://raw.githubusercontent.com/saramff/face-recognition-images/refs/heads/master//women/woman_87.jpg"">
      <p class=""person-name"">Svenja</p>
    ","","","",""
"null","","html-keyboard-response","171","2.0.0","227330","aakapu9x9tehf5v","true","18","weiblich","rechts","Deutsch","","","null","","","","","","<div style=""font-size:60px;"">+</div>","fixation","","",""
"null","","html-keyboard-response","172","2.0.0","228336","aakapu9x9tehf5v","true","18","weiblich","rechts","Deutsch","","","null","","","","","","
      <img class=""person-img"" src=""https://raw.githubusercontent.com/saramff/face-recognition-images/refs/heads/master//women/woman_32.jpg"">
      <p class=""person-name"">Marlene</p>
    ","","","",""
"null","","html-keyboard-response","173","2.0.0","229343","aakapu9x9tehf5v","true","18","weiblich","rechts","Deutsch","","","null","","","","","","<div style=""font-size:60px;"">+</div>","fixation","","",""
"null","","html-keyboard-response","174","2.0.0","230353","aakapu9x9tehf5v","true","18","weiblich","rechts","Deutsch","","","null","","","","","","
      <img class=""person-img"" src=""https://raw.githubusercontent.com/saramff/face-recognition-images/refs/heads/master//men/man_68.jpg"">
      <p class=""person-name"">Dominik</p>
    ","","","",""
"null","","html-keyboard-response","175","2.0.0","231364","aakapu9x9tehf5v","true","18","weiblich","rechts","Deutsch","","","null","","","","","","<div style=""font-size:60px;"">+</div>","fixation","","",""
"null","","html-keyboard-response","176","2.0.0","232376","aakapu9x9tehf5v","true","18","weiblich","rechts","Deutsch","","","null","","","","","","
      <img class=""person-img"" src=""https://raw.githubusercontent.com/saramff/face-recognition-images/refs/heads/master//men/man_71.jpg"">
      <p class=""person-name"">Robin</p>
    ","","","",""
"null","","html-keyboard-response","177","2.0.0","233382","aakapu9x9tehf5v","true","18","weiblich","rechts","Deutsch","","","null","","","","","","<div style=""font-size:60px;"">+</div>","fixation","","",""
"null","","html-keyboard-response","178","2.0.0","234386","aakapu9x9tehf5v","true","18","weiblich","rechts","Deutsch","","","null","","","","","","
      <img class=""person-img"" src=""https://raw.githubusercontent.com/saramff/face-recognition-images/refs/heads/master//men/man_63.jpg"">
      <p class=""person-name"">Lukas</p>
    ","","","",""
"null","","html-keyboard-response","179","2.0.0","235394","aakapu9x9tehf5v","true","18","weiblich","rechts","Deutsch","","","null","","","","","","<div style=""font-size:60px;"">+</div>","fixation","","",""
"null","","html-keyboard-response","180","2.0.0","236399","aakapu9x9tehf5v","true","18","weiblich","rechts","Deutsch","","","null","","","","","","
      <img class=""person-img"" src=""https://raw.githubusercontent.com/saramff/face-recognition-images/refs/heads/master//women/woman_57.jpg"">
      <p class=""person-name"">Stella</p>
    ","","","",""
"null","","html-keyboard-response","181","2.0.0","237408","aakapu9x9tehf5v","true","18","weiblich","rechts","Deutsch","","","null","","","","","","<div style=""font-size:60px;"">+</div>","fixation","","",""
"null","","html-keyboard-response","182","2.0.0","238413","aakapu9x9tehf5v","true","18","weiblich","rechts","Deutsch","","","null","","","","","","
      <img class=""person-img"" src=""https://raw.githubusercontent.com/saramff/face-recognition-images/refs/heads/master//men/man_49.jpg"">
      <p class=""person-name"">Manuel</p>
    ","","","",""
"null","","html-keyboard-response","183","2.0.0","239423","aakapu9x9tehf5v","true","18","weiblich","rechts","Deutsch","","","null","","","","","","<div style=""font-size:60px;"">+</div>","fixation","","",""
"null","","html-keyboard-response","184","2.0.0","240428","aakapu9x9tehf5v","true","18","weiblich","rechts","Deutsch","","","null","","","","","","
      <img class=""person-img"" src=""https://raw.githubusercontent.com/saramff/face-recognition-images/refs/heads/master//men/man_62.jpg"">
      <p class=""person-name"">Marius</p>
    ","","","",""
"null","","html-keyboard-response","185","2.0.0","241435","aakapu9x9tehf5v","true","18","weiblich","rechts","Deutsch","","","null","","","","","","<div style=""font-size:60px;"">+</div>","fixation","","",""
"null","","html-keyboard-response","186","2.0.0","242442","aakapu9x9tehf5v","true","18","weiblich","rechts","Deutsch","","","null","","","","","","
      <img class=""person-img"" src=""https://raw.githubusercontent.com/saramff/face-recognition-images/refs/heads/master//men/man_84.jpg"">
      <p class=""person-name"">Karl</p>
    ","","","",""
"null","","html-keyboard-response","187","2.0.0","243449","aakapu9x9tehf5v","true","18","weiblich","rechts","Deutsch","","","null","","","","","","<div style=""font-size:60px;"">+</div>","fixation","","",""
"null","","html-keyboard-response","188","2.0.0","244580","aakapu9x9tehf5v","true","18","weiblich","rechts","Deutsch","","","null","","","","","","
      <img class=""person-img"" src=""https://raw.githubusercontent.com/saramff/face-recognition-images/refs/heads/master//women/woman_9.jpg"">
      <p class=""person-name"">Elly</p>
    ","","","",""
"null","","html-keyboard-response","189","2.0.0","245586","aakapu9x9tehf5v","true","18","weiblich","rechts","Deutsch","","","null","","","","","","<div style=""font-size:60px;"">+</div>","fixation","","",""
"null","","html-keyboard-response","190","2.0.0","246592","aakapu9x9tehf5v","true","18","weiblich","rechts","Deutsch","","","null","","","","","","
      <img class=""person-img"" src=""https://raw.githubusercontent.com/saramff/face-recognition-images/refs/heads/master//men/man_24.jpg"">
      <p class=""person-name"">Anton</p>
    ","","","",""
"null","","html-keyboard-response","191","2.0.0","247599","aakapu9x9tehf5v","true","18","weiblich","rechts","Deutsch","","","null","","","","","","<div style=""font-size:60px;"">+</div>","fixation","","",""
"null","","html-keyboard-response","192","2.0.0","248604","aakapu9x9tehf5v","true","18","weiblich","rechts","Deutsch","","","null","","","","","","
      <img class=""person-img"" src=""https://raw.githubusercontent.com/saramff/face-recognition-images/refs/heads/master//women/woman_69.jpg"">
      <p class=""person-name"">Liana</p>
    ","","","",""
"null","","html-keyboard-response","193","2.0.0","249612","aakapu9x9tehf5v","true","18","weiblich","rechts","Deutsch","","","null","","","","","","<div style=""font-size:60px;"">+</div>","fixation","","",""
"null","","html-keyboard-response","194","2.0.0","250617","aakapu9x9tehf5v","true","18","weiblich","rechts","Deutsch","","","null","","","","","","
      <img class=""person-img"" src=""https://raw.githubusercontent.com/saramff/face-recognition-images/refs/heads/master//women/woman_86.jpg"">
      <p class=""person-name"">Elisabeth</p>
    ","","","",""
"null","","html-keyboard-response","195","2.0.0","251624","aakapu9x9tehf5v","true","18","weiblich","rechts","Deutsch","","","null","","","","","","<div style=""font-size:60px;"">+</div>","fixation","","",""
"null","","html-keyboard-response","196","2.0.0","252630","aakapu9x9tehf5v","true","18","weiblich","rechts","Deutsch","","","null","","","","","","
      <img class=""person-img"" src=""https://raw.githubusercontent.com/saramff/face-recognition-images/refs/heads/master//men/man_38.jpg"">
      <p class=""person-name"">Richard</p>
    ","","","",""
"null","","html-keyboard-response","197","2.0.0","253639","aakapu9x9tehf5v","true","18","weiblich","rechts","Deutsch","","","null","","","","","","<div style=""font-size:60px;"">+</div>","fixation","","",""
"null","","html-keyboard-response","198","2.0.0","254645","aakapu9x9tehf5v","true","18","weiblich","rechts","Deutsch","","","null","","","","","","
      <img class=""person-img"" src=""https://raw.githubusercontent.com/saramff/face-recognition-images/refs/heads/master//men/man_4.jpg"">
      <p class=""person-name"">Karsten</p>
    ","","","",""
"null","","html-keyboard-response","199","2.0.0","255651","aakapu9x9tehf5v","true","18","weiblich","rechts","Deutsch","","","null","","","","","","<div style=""font-size:60px;"">+</div>","fixation","","",""
"null","","html-keyboard-response","200","2.0.0","256656","aakapu9x9tehf5v","true","18","weiblich","rechts","Deutsch","","","null","","","","","","
      <img class=""person-img"" src=""https://raw.githubusercontent.com/saramff/face-recognition-images/refs/heads/master//men/man_72.jpg"">
      <p class=""person-name"">Daniel</p>
    ","","","",""
"null","","html-keyboard-response","201","2.0.0","257664","aakapu9x9tehf5v","true","18","weiblich","rechts","Deutsch","","","null","","","","","","<div style=""font-size:60px;"">+</div>","fixation","","",""
"null","","html-keyboard-response","202","2.0.0","258672","aakapu9x9tehf5v","true","18","weiblich","rechts","Deutsch","","","null","","","","","","
      <img class=""person-img"" src=""https://raw.githubusercontent.com/saramff/face-recognition-images/refs/heads/master//women/woman_16.jpg"">
      <p class=""person-name"">Antonia</p>
    ","","","",""
"null","","html-keyboard-response","203","2.0.0","259678","aakapu9x9tehf5v","true","18","weiblich","rechts","Deutsch","","","null","","","","","","<div style=""font-size:60px;"">+</div>","fixation","","",""
"null","","html-keyboard-response","204","2.0.0","260683","aakapu9x9tehf5v","true","18","weiblich","rechts","Deutsch","","","null","","","","","","
      <img class=""person-img"" src=""https://raw.githubusercontent.com/saramff/face-recognition-images/refs/heads/master//women/woman_64.jpg"">
      <p class=""person-name"">Veronika</p>
    ","","","",""
"null","","html-keyboard-response","205","2.0.0","261692","aakapu9x9tehf5v","true","18","weiblich","rechts","Deutsch","","","null","","","","","","<div style=""font-size:60px;"">+</div>","fixation","","",""
"null","","html-keyboard-response","206","2.0.0","262698","aakapu9x9tehf5v","true","18","weiblich","rechts","Deutsch","","","null","","","","","","
      <img class=""person-img"" src=""https://raw.githubusercontent.com/saramff/face-recognition-images/refs/heads/master//women/woman_6.jpg"">
      <p class=""person-name"">Tabea</p>
    ","","","",""
"null","","html-keyboard-response","207","2.0.0","263704","aakapu9x9tehf5v","true","18","weiblich","rechts","Deutsch","","","null","","","","","","<div style=""font-size:60px;"">+</div>","fixation","","",""
"null","","html-keyboard-response","208","2.0.0","264711","aakapu9x9tehf5v","true","18","weiblich","rechts","Deutsch","","","null","","","","","","
      <img class=""person-img"" src=""https://raw.githubusercontent.com/saramff/face-recognition-images/refs/heads/master//men/man_43.jpg"">
      <p class=""person-name"">Robert</p>
    ","","","",""
"null","","html-keyboard-response","209","2.0.0","265717","aakapu9x9tehf5v","true","18","weiblich","rechts","Deutsch","","","null","","","","","","<div style=""font-size:60px;"">+</div>","fixation","","",""
"null","","html-keyboard-response","210","2.0.0","266725","aakapu9x9tehf5v","true","18","weiblich","rechts","Deutsch","","","null","","","","","","
      <img class=""person-img"" src=""https://raw.githubusercontent.com/saramff/face-recognition-images/refs/heads/master//women/woman_38.jpg"">
      <p class=""person-name"">Zoe</p>
    ","","","",""
"null","","html-keyboard-response","211","2.0.0","267730","aakapu9x9tehf5v","true","18","weiblich","rechts","Deutsch","","","null","","","","","","<div style=""font-size:60px;"">+</div>","fixation","","",""
"null","","html-keyboard-response","212","2.0.0","268738","aakapu9x9tehf5v","true","18","weiblich","rechts","Deutsch","","","null","","","","","","
      <img class=""person-img"" src=""https://raw.githubusercontent.com/saramff/face-recognition-images/refs/heads/master//women/woman_1.jpg"">
      <p class=""person-name"">Fabienne</p>
    ","","","",""
"null","","html-keyboard-response","213","2.0.0","269747","aakapu9x9tehf5v","true","18","weiblich","rechts","Deutsch","","","null","","","","","","<div style=""font-size:60px;"">+</div>","fixation","","",""
"null","","html-keyboard-response","214","2.0.0","270753","aakapu9x9tehf5v","true","18","weiblich","rechts","Deutsch","","","null","","","","","","
      <img class=""person-img"" src=""https://raw.githubusercontent.com/saramff/face-recognition-images/refs/heads/master//men/man_37.jpg"">
      <p class=""person-name"">Michael</p>
    ","","","",""
"null","","html-keyboard-response","215","2.0.0","271760","aakapu9x9tehf5v","true","18","weiblich","rechts","Deutsch","","","null","","","","","","<div style=""font-size:60px;"">+</div>","fixation","","",""
"null","","html-keyboard-response","216","2.0.0","272767","aakapu9x9tehf5v","true","18","weiblich","rechts","Deutsch","","","null","","","","","","
      <img class=""person-img"" src=""https://raw.githubusercontent.com/saramff/face-recognition-images/refs/heads/master//men/man_53.jpg"">
      <p class=""person-name"">Ralf</p>
    ","","","",""
"null","","html-keyboard-response","217","2.0.0","273774","aakapu9x9tehf5v","true","18","weiblich","rechts","Deutsch","","","null","","","","","","<div style=""font-size:60px;"">+</div>","fixation","","",""
"null","","html-keyboard-response","218","2.0.0","274780","aakapu9x9tehf5v","true","18","weiblich","rechts","Deutsch","","","null","","","","","","
      <img class=""person-img"" src=""https://raw.githubusercontent.com/saramff/face-recognition-images/refs/heads/master//men/man_13.jpg"">
      <p class=""person-name"">Dirk</p>
    ","","","",""
"null","","html-keyboard-response","219","2.0.0","275786","aakapu9x9tehf5v","true","18","weiblich","rechts","Deutsch","","","null","","","","","","<div style=""font-size:60px;"">+</div>","fixation","","",""
"null","","html-keyboard-response","220","2.0.0","276791","aakapu9x9tehf5v","true","18","weiblich","rechts","Deutsch","","","null","","","","","","
      <img class=""person-img"" src=""https://raw.githubusercontent.com/saramff/face-recognition-images/refs/heads/master//women/woman_33.jpg"">
      <p class=""person-name"">Fiona</p>
    ","","","",""
"null","","html-keyboard-response","221","2.0.0","277800","aakapu9x9tehf5v","true","18","weiblich","rechts","Deutsch","","","null","","","","","","<div style=""font-size:60px;"">+</div>","fixation","","",""
"null","","html-keyboard-response","222","2.0.0","278806","aakapu9x9tehf5v","true","18","weiblich","rechts","Deutsch","","","null","","","","","","
      <img class=""person-img"" src=""https://raw.githubusercontent.com/saramff/face-recognition-images/refs/heads/master//women/woman_30.jpg"">
      <p class=""person-name"">Lotte</p>
    ","","","",""
"null","","html-keyboard-response","223","2.0.0","279811","aakapu9x9tehf5v","true","18","weiblich","rechts","Deutsch","","","null","","","","","","<div style=""font-size:60px;"">+</div>","fixation","","",""
"null","","html-keyboard-response","224","2.0.0","280817","aakapu9x9tehf5v","true","18","weiblich","rechts","Deutsch","","","null","","","","","","
      <img class=""person-img"" src=""https://raw.githubusercontent.com/saramff/face-recognition-images/refs/heads/master//women/woman_8.jpg"">
      <p class=""person-name"">Kerstin</p>
    ","","","",""
"null","","html-keyboard-response","225","2.0.0","281827","aakapu9x9tehf5v","true","18","weiblich","rechts","Deutsch","","","null","","","","","","<div style=""font-size:60px;"">+</div>","fixation","","",""
"null","","html-keyboard-response","226","2.0.0","282833","aakapu9x9tehf5v","true","18","weiblich","rechts","Deutsch","","","null","","","","","","
      <img class=""person-img"" src=""https://raw.githubusercontent.com/saramff/face-recognition-images/refs/heads/master//women/woman_65.jpg"">
      <p class=""person-name"">Neele</p>
    ","","","",""
"null","","html-keyboard-response","227","2.0.0","283839","aakapu9x9tehf5v","true","18","weiblich","rechts","Deutsch","","","null","","","","","","<div style=""font-size:60px;"">+</div>","fixation","","",""
"null","","html-keyboard-response","228","2.0.0","284846","aakapu9x9tehf5v","true","18","weiblich","rechts","Deutsch","","","null","","","","","","
      <img class=""person-img"" src=""https://raw.githubusercontent.com/saramff/face-recognition-images/refs/heads/master//women/woman_95.jpg"">
      <p class=""person-name"">Aurelia</p>
    ","","","",""
"null","","html-keyboard-response","229","2.0.0","285851","aakapu9x9tehf5v","true","18","weiblich","rechts","Deutsch","","","null","","","","","","<div style=""font-size:60px;"">+</div>","fixation","","",""
"null","","html-keyboard-response","230","2.0.0","286856","aakapu9x9tehf5v","true","18","weiblich","rechts","Deutsch","","","null","","","","","","
      <img class=""person-img"" src=""https://raw.githubusercontent.com/saramff/face-recognition-images/refs/heads/master//women/woman_88.jpg"">
      <p class=""person-name"">Rosalie</p>
    ","","","",""
"null","","html-keyboard-response","231","2.0.0","287863","aakapu9x9tehf5v","true","18","weiblich","rechts","Deutsch","","","null","","","","","","<div style=""font-size:60px;"">+</div>","fixation","","",""
"null","","html-keyboard-response","232","2.0.0","288868","aakapu9x9tehf5v","true","18","weiblich","rechts","Deutsch","","","null","","","","","","
      <img class=""person-img"" src=""https://raw.githubusercontent.com/saramff/face-recognition-images/refs/heads/master//men/man_94.jpg"">
      <p class=""person-name"">Moritz</p>
    ","","","",""
"null","","html-keyboard-response","233","2.0.0","289876","aakapu9x9tehf5v","true","18","weiblich","rechts","Deutsch","","","null","","","","","","<div style=""font-size:60px;"">+</div>","fixation","","",""
"null","","html-keyboard-response","234","2.0.0","290882","aakapu9x9tehf5v","true","18","weiblich","rechts","Deutsch","","","null","","","","","","
      <img class=""person-img"" src=""https://raw.githubusercontent.com/saramff/face-recognition-images/refs/heads/master//men/man_54.jpg"">
      <p class=""person-name"">Adrian</p>
    ","","","",""
"null","","html-keyboard-response","235","2.0.0","291888","aakapu9x9tehf5v","true","18","weiblich","rechts","Deutsch","","","null","","","","","","<div style=""font-size:60px;"">+</div>","fixation","","",""
"null","","html-keyboard-response","236","2.0.0","292894","aakapu9x9tehf5v","true","18","weiblich","rechts","Deutsch","","","null","","","","","","
      <img class=""person-img"" src=""https://raw.githubusercontent.com/saramff/face-recognition-images/refs/heads/master//women/woman_11.jpg"">
      <p class=""person-name"">Carina</p>
    ","","","",""
"null","","html-keyboard-response","237","2.0.0","293900","aakapu9x9tehf5v","true","18","weiblich","rechts","Deutsch","","","null","","","","","","<div style=""font-size:60px;"">+</div>","fixation","","",""
"null","","html-keyboard-response","238","2.0.0","294908","aakapu9x9tehf5v","true","18","weiblich","rechts","Deutsch","","","null","","","","","","
      <img class=""person-img"" src=""https://raw.githubusercontent.com/saramff/face-recognition-images/refs/heads/master//women/woman_4.jpg"">
      <p class=""person-name"">Beate</p>
    ","","","",""
"null","","html-keyboard-response","239","2.0.0","295913","aakapu9x9tehf5v","true","18","weiblich","rechts","Deutsch","","","null","","","","","","<div style=""font-size:60px;"">+</div>","fixation","","",""
"null","","html-keyboard-response","240","2.0.0","296917","aakapu9x9tehf5v","true","18","weiblich","rechts","Deutsch","","","null","","","","","","
      <img class=""person-img"" src=""https://raw.githubusercontent.com/saramff/face-recognition-images/refs/heads/master//women/woman_63.jpg"">
      <p class=""person-name"">Janina</p>
    ","","","",""
"null","","html-keyboard-response","241","2.0.0","297925","aakapu9x9tehf5v","true","18","weiblich","rechts","Deutsch","","","null","","","","","","<div style=""font-size:60px;"">+</div>","fixation","","",""
"null","","html-keyboard-response","242","2.0.0","298930","aakapu9x9tehf5v","true","18","weiblich","rechts","Deutsch","","","null","","","","","","
      <img class=""person-img"" src=""https://raw.githubusercontent.com/saramff/face-recognition-images/refs/heads/master//men/man_39.jpg"">
      <p class=""person-name"">Patrick</p>
    ","","","",""
"null","","html-keyboard-response","243","2.0.0","299937","aakapu9x9tehf5v","true","18","weiblich","rechts","Deutsch","","","null","","","","","","<div style=""font-size:60px;"">+</div>","fixation","","",""
"null","","html-keyboard-response","244","2.0.0","300941","aakapu9x9tehf5v","true","18","weiblich","rechts","Deutsch","","","null","","","","","","
      <img class=""person-img"" src=""https://raw.githubusercontent.com/saramff/face-recognition-images/refs/heads/master//men/man_76.jpg"">
      <p class=""person-name"">Jochen</p>
    ","","","",""
"null","","html-keyboard-response","245","2.0.0","301948","aakapu9x9tehf5v","true","18","weiblich","rechts","Deutsch","","","null","","","","","","<div style=""font-size:60px;"">+</div>","fixation","","",""
"null","","html-keyboard-response","246","2.0.0","302953","aakapu9x9tehf5v","true","18","weiblich","rechts","Deutsch","","","null","","","","","","
      <img class=""person-img"" src=""https://raw.githubusercontent.com/saramff/face-recognition-images/refs/heads/master//women/woman_52.jpg"">
      <p class=""person-name"">Sophia</p>
    ","","","",""
"null","","html-keyboard-response","247","2.0.0","303962","aakapu9x9tehf5v","true","18","weiblich","rechts","Deutsch","","","null","","","","","","<div style=""font-size:60px;"">+</div>","fixation","","",""
"null","","html-keyboard-response","248","2.0.0","304971","aakapu9x9tehf5v","true","18","weiblich","rechts","Deutsch","","","null","","","","","","
      <img class=""person-img"" src=""https://raw.githubusercontent.com/saramff/face-recognition-images/refs/heads/master//men/man_56.jpg"">
      <p class=""person-name"">Ruben</p>
    ","","","",""
"null","","html-keyboard-response","249","2.0.0","305982","aakapu9x9tehf5v","true","18","weiblich","rechts","Deutsch","","","null","","","","","","<div style=""font-size:60px;"">+</div>","fixation","","",""
"null","","html-keyboard-response","250","2.0.0","306989","aakapu9x9tehf5v","true","18","weiblich","rechts","Deutsch","","","null","","","","","","
      <img class=""person-img"" src=""https://raw.githubusercontent.com/saramff/face-recognition-images/refs/heads/master//women/woman_10.jpg"">
      <p class=""person-name"">Emma</p>
    ","","","",""
"null","","html-keyboard-response","251","2.0.0","307996","aakapu9x9tehf5v","true","18","weiblich","rechts","Deutsch","","","null","","","","","","<div style=""font-size:60px;"">+</div>","fixation","","",""
"null","","html-keyboard-response","252","2.0.0","309001","aakapu9x9tehf5v","true","18","weiblich","rechts","Deutsch","","","null","","","","","","
      <img class=""person-img"" src=""https://raw.githubusercontent.com/saramff/face-recognition-images/refs/heads/master//men/man_29.jpg"">
      <p class=""person-name"">J&ouml;rg</p>
    ","","","",""
"null","","html-keyboard-response","253","2.0.0","310011","aakapu9x9tehf5v","true","18","weiblich","rechts","Deutsch","","","null","","","","","","<div style=""font-size:60px;"">+</div>","fixation","","",""
"null","","html-keyboard-response","254","2.0.0","311017","aakapu9x9tehf5v","true","18","weiblich","rechts","Deutsch","","","null","","","","","","
      <img class=""person-img"" src=""https://raw.githubusercontent.com/saramff/face-recognition-images/refs/heads/master//men/man_14.jpg"">
      <p class=""person-name"">Ludwig</p>
    ","","","",""
"null","","html-keyboard-response","255","2.0.0","312023","aakapu9x9tehf5v","true","18","weiblich","rechts","Deutsch","","","null","","","","","","<div style=""font-size:60px;"">+</div>","fixation","","",""
"null","","html-keyboard-response","256","2.0.0","313029","aakapu9x9tehf5v","true","18","weiblich","rechts","Deutsch","","","null","","","","","","
      <img class=""person-img"" src=""https://raw.githubusercontent.com/saramff/face-recognition-images/refs/heads/master//women/woman_14.jpg"">
      <p class=""person-name"">Annika</p>
    ","","","",""
"null","","html-keyboard-response","257","2.0.0","314036","aakapu9x9tehf5v","true","18","weiblich","rechts","Deutsch","","","null","","","","","","<div style=""font-size:60px;"">+</div>","fixation","","",""
"null","","html-keyboard-response","258","2.0.0","315042","aakapu9x9tehf5v","true","18","weiblich","rechts","Deutsch","","","null","","","","","","
      <img class=""person-img"" src=""https://raw.githubusercontent.com/saramff/face-recognition-images/refs/heads/master//women/woman_13.jpg"">
      <p class=""person-name"">Marta</p>
    ","","","",""
"null","","html-keyboard-response","259","2.0.0","316047","aakapu9x9tehf5v","true","18","weiblich","rechts","Deutsch","","","null","","","","","","<div style=""font-size:60px;"">+</div>","fixation","","",""
"null","","html-keyboard-response","260","2.0.0","317053","aakapu9x9tehf5v","true","18","weiblich","rechts","Deutsch","","","null","","","","","","
      <img class=""person-img"" src=""https://raw.githubusercontent.com/saramff/face-recognition-images/refs/heads/master//women/woman_84.jpg"">
      <p class=""person-name"">Charlotte</p>
    ","","","",""
"null","","html-keyboard-response","261","2.0.0","318060","aakapu9x9tehf5v","true","18","weiblich","rechts","Deutsch","","","null","","","","","","<div style=""font-size:60px;"">+</div>","fixation","","",""
"null","","html-keyboard-response","262","2.0.0","319066","aakapu9x9tehf5v","true","18","weiblich","rechts","Deutsch","","","null","","","","","","
      <img class=""person-img"" src=""https://raw.githubusercontent.com/saramff/face-recognition-images/refs/heads/master//men/man_23.jpg"">
      <p class=""person-name"">Alexander</p>
    ","","","",""
"null","","html-keyboard-response","263","2.0.0","320073","aakapu9x9tehf5v","true","18","weiblich","rechts","Deutsch","","","null","","","","","","<div style=""font-size:60px;"">+</div>","fixation","","",""
"null","","html-keyboard-response","264","2.0.0","321079","aakapu9x9tehf5v","true","18","weiblich","rechts","Deutsch","","","null","","","","","","
      <img class=""person-img"" src=""https://raw.githubusercontent.com/saramff/face-recognition-images/refs/heads/master//men/man_8.jpg"">
      <p class=""person-name"">Johannes</p>
    ","","","",""
"null","","html-keyboard-response","265","2.0.0","322086","aakapu9x9tehf5v","true","18","weiblich","rechts","Deutsch","","","null","","","","","","<div style=""font-size:60px;"">+</div>","fixation","","",""
"null","","html-keyboard-response","266","2.0.0","323094","aakapu9x9tehf5v","true","18","weiblich","rechts","Deutsch","","","null","","","","","","
      <img class=""person-img"" src=""https://raw.githubusercontent.com/saramff/face-recognition-images/refs/heads/master//men/man_33.jpg"">
      <p class=""person-name"">Volker</p>
    ","","","",""
"null","","html-keyboard-response","267","2.0.0","324100","aakapu9x9tehf5v","true","18","weiblich","rechts","Deutsch","","","null","","","","","","<div style=""font-size:60px;"">+</div>","fixation","","",""
"null","","html-keyboard-response","268","2.0.0","325105","aakapu9x9tehf5v","true","18","weiblich","rechts","Deutsch","","","null","","","","","","
      <img class=""person-img"" src=""https://raw.githubusercontent.com/saramff/face-recognition-images/refs/heads/master//women/woman_45.jpg"">
      <p class=""person-name"">Livia</p>
    ","","","",""
"null","","html-keyboard-response","269","2.0.0","326111","aakapu9x9tehf5v","true","18","weiblich","rechts","Deutsch","","","null","","","","","","<div style=""font-size:60px;"">+</div>","fixation","","",""
"null","","html-keyboard-response","270","2.0.0","327117","aakapu9x9tehf5v","true","18","weiblich","rechts","Deutsch","","","null","","","","","","
      <img class=""person-img"" src=""https://raw.githubusercontent.com/saramff/face-recognition-images/refs/heads/master//men/man_89.jpg"">
      <p class=""person-name"">Tim</p>
    ","","","",""
"null","","html-keyboard-response","271","2.0.0","328139","aakapu9x9tehf5v","true","18","weiblich","rechts","Deutsch","","","null","","","","","","<div style=""font-size:60px;"">+</div>","fixation","","",""
"null","","html-keyboard-response","272","2.0.0","329144","aakapu9x9tehf5v","true","18","weiblich","rechts","Deutsch","","","null","","","","","","
      <img class=""person-img"" src=""https://raw.githubusercontent.com/saramff/face-recognition-images/refs/heads/master//men/man_57.jpg"">
      <p class=""person-name"">Jakob</p>
    ","","","",""
"null","","html-keyboard-response","273","2.0.0","330151","aakapu9x9tehf5v","true","18","weiblich","rechts","Deutsch","","","null","","","","","","<div style=""font-size:60px;"">+</div>","fixation","","",""
"null","","html-keyboard-response","274","2.0.0","331155","aakapu9x9tehf5v","true","18","weiblich","rechts","Deutsch","","","null","","","","","","
      <img class=""person-img"" src=""https://raw.githubusercontent.com/saramff/face-recognition-images/refs/heads/master//men/man_10.jpg"">
      <p class=""person-name"">Elias</p>
    ","","","",""
"null","","html-keyboard-response","275","2.0.0","332162","aakapu9x9tehf5v","true","18","weiblich","rechts","Deutsch","","","null","","","","","","<div style=""font-size:60px;"">+</div>","fixation","","",""
"null","","html-keyboard-response","276","2.0.0","333169","aakapu9x9tehf5v","true","18","weiblich","rechts","Deutsch","","","null","","","","","","
      <img class=""person-img"" src=""https://raw.githubusercontent.com/saramff/face-recognition-images/refs/heads/master//men/man_80.jpg"">
      <p class=""person-name"">Kilian</p>
    ","","","",""
"null","","html-keyboard-response","277","2.0.0","334176","aakapu9x9tehf5v","true","18","weiblich","rechts","Deutsch","","","null","","","","","","<div style=""font-size:60px;"">+</div>","fixation","","",""
"null","","html-keyboard-response","278","2.0.0","335180","aakapu9x9tehf5v","true","18","weiblich","rechts","Deutsch","","","null","","","","","","
      <img class=""person-img"" src=""https://raw.githubusercontent.com/saramff/face-recognition-images/refs/heads/master//women/woman_49.jpg"">
      <p class=""person-name"">Finja</p>
    ","","","",""
"null","","html-keyboard-response","279","2.0.0","336186","aakapu9x9tehf5v","true","18","weiblich","rechts","Deutsch","","","null","","","","","","<div style=""font-size:60px;"">+</div>","fixation","","",""
"null","","html-keyboard-response","280","2.0.0","337191","aakapu9x9tehf5v","true","18","weiblich","rechts","Deutsch","","","null","","","","","","
      <img class=""person-img"" src=""https://raw.githubusercontent.com/saramff/face-recognition-images/refs/heads/master//women/woman_21.jpg"">
      <p class=""person-name"">Lilly</p>
    ","","","",""
"null","","html-keyboard-response","281","2.0.0","338198","aakapu9x9tehf5v","true","18","weiblich","rechts","Deutsch","","","null","","","","","","<div style=""font-size:60px;"">+</div>","fixation","","",""
"null","","html-keyboard-response","282","2.0.0","339203","aakapu9x9tehf5v","true","18","weiblich","rechts","Deutsch","","","null","","","","","","
      <img class=""person-img"" src=""https://raw.githubusercontent.com/saramff/face-recognition-images/refs/heads/master//men/man_77.jpg"">
      <p class=""person-name"">Christoph</p>
    ","","","",""
"null","","html-keyboard-response","283","2.0.0","340210","aakapu9x9tehf5v","true","18","weiblich","rechts","Deutsch","","","null","","","","","","<div style=""font-size:60px;"">+</div>","fixation","","",""
"null","","html-keyboard-response","284","2.0.0","341214","aakapu9x9tehf5v","true","18","weiblich","rechts","Deutsch","","","null","","","","","","
      <img class=""person-img"" src=""https://raw.githubusercontent.com/saramff/face-recognition-images/refs/heads/master//men/man_85.jpg"">
      <p class=""person-name"">Max</p>
    ","","","",""
"null","","html-keyboard-response","285","2.0.0","342223","aakapu9x9tehf5v","true","18","weiblich","rechts","Deutsch","","","null","","","","","","<div style=""font-size:60px;"">+</div>","fixation","","",""
"null","","html-keyboard-response","286","2.0.0","343229","aakapu9x9tehf5v","true","18","weiblich","rechts","Deutsch","","","null","","","","","","
      <img class=""person-img"" src=""https://raw.githubusercontent.com/saramff/face-recognition-images/refs/heads/master//men/man_6.jpg"">
      <p class=""person-name"">Valentin</p>
    ","","","",""
"null","","html-keyboard-response","287","2.0.0","344237","aakapu9x9tehf5v","true","18","weiblich","rechts","Deutsch","","","null","","","","","","<div style=""font-size:60px;"">+</div>","fixation","","",""
"null","","html-keyboard-response","288","2.0.0","345245","aakapu9x9tehf5v","true","18","weiblich","rechts","Deutsch","","","null","","","","","","
      <img class=""person-img"" src=""https://raw.githubusercontent.com/saramff/face-recognition-images/refs/heads/master//women/woman_46.jpg"">
      <p class=""person-name"">Henni</p>
    ","","","",""
"null","","html-keyboard-response","289","2.0.0","346251","aakapu9x9tehf5v","true","18","weiblich","rechts","Deutsch","","","null","","","","","","<div style=""font-size:60px;"">+</div>","fixation","","",""
"null","","html-keyboard-response","290","2.0.0","347255","aakapu9x9tehf5v","true","18","weiblich","rechts","Deutsch","","","null","","","","","","
      <img class=""person-img"" src=""https://raw.githubusercontent.com/saramff/face-recognition-images/refs/heads/master//women/woman_58.jpg"">
      <p class=""person-name"">Franziska</p>
    ","","","",""
"null","","html-keyboard-response","291","2.0.0","348265","aakapu9x9tehf5v","true","18","weiblich","rechts","Deutsch","","","null","","","","","","<div style=""font-size:60px;"">+</div>","fixation","","",""
"null","","html-keyboard-response","292","2.0.0","349273","aakapu9x9tehf5v","true","18","weiblich","rechts","Deutsch","","","null","","","","","","
      <img class=""person-img"" src=""https://raw.githubusercontent.com/saramff/face-recognition-images/refs/heads/master//men/man_25.jpg"">
      <p class=""person-name"">Konrad</p>
    ","","","",""
"null","","html-keyboard-response","293","2.0.0","350281","aakapu9x9tehf5v","true","18","weiblich","rechts","Deutsch","","","null","","","","","","<div style=""font-size:60px;"">+</div>","fixation","","",""
"null","","html-keyboard-response","294","2.0.0","351288","aakapu9x9tehf5v","true","18","weiblich","rechts","Deutsch","","","null","","","","","","
      <img class=""person-img"" src=""https://raw.githubusercontent.com/saramff/face-recognition-images/refs/heads/master//women/woman_35.jpg"">
      <p class=""person-name"">Louisa</p>
    ","","","",""
"null","","html-keyboard-response","295","2.0.0","352300","aakapu9x9tehf5v","true","18","weiblich","rechts","Deutsch","","","null","","","","","","<div style=""font-size:60px;"">+</div>","fixation","","",""
"null","","html-keyboard-response","296","2.0.0","353307","aakapu9x9tehf5v","true","18","weiblich","rechts","Deutsch","","","null","","","","","","
      <img class=""person-img"" src=""https://raw.githubusercontent.com/saramff/face-recognition-images/refs/heads/master//women/woman_82.jpg"">
      <p class=""person-name"">Viola</p>
    ","","","",""
"null","","html-keyboard-response","297","2.0.0","354313","aakapu9x9tehf5v","true","18","weiblich","rechts","Deutsch","","","null","","","","","","<div style=""font-size:60px;"">+</div>","fixation","","",""
"null","","html-keyboard-response","298","2.0.0","355321","aakapu9x9tehf5v","true","18","weiblich","rechts","Deutsch","","","null","","","","","","
      <img class=""person-img"" src=""https://raw.githubusercontent.com/saramff/face-recognition-images/refs/heads/master//men/man_26.jpg"">
      <p class=""person-name"">Bruno</p>
    ","","","",""
"null","","html-keyboard-response","299","2.0.0","356328","aakapu9x9tehf5v","true","18","weiblich","rechts","Deutsch","","","null","","","","","","<div style=""font-size:60px;"">+</div>","fixation","","",""
"null","","html-keyboard-response","300","2.0.0","357333","aakapu9x9tehf5v","true","18","weiblich","rechts","Deutsch","","","null","","","","","","
      <img class=""person-img"" src=""https://raw.githubusercontent.com/saramff/face-recognition-images/refs/heads/master//women/woman_61.jpg"">
      <p class=""person-name"">Anja</p>
    ","","","",""
"null","","html-keyboard-response","301","2.0.0","358339","aakapu9x9tehf5v","true","18","weiblich","rechts","Deutsch","","","null","","","","","","<div style=""font-size:60px;"">+</div>","fixation","","",""
"null","","html-keyboard-response","302","2.0.0","359345","aakapu9x9tehf5v","true","18","weiblich","rechts","Deutsch","","","null","","","","","","
      <img class=""person-img"" src=""https://raw.githubusercontent.com/saramff/face-recognition-images/refs/heads/master//men/man_22.jpg"">
      <p class=""person-name"">Eugen</p>
    ","","","",""
"null","","html-keyboard-response","303","2.0.0","360353","aakapu9x9tehf5v","true","18","weiblich","rechts","Deutsch","","","null","","","","","","<div style=""font-size:60px;"">+</div>","fixation","","",""
"null","","html-keyboard-response","304","2.0.0","361359","aakapu9x9tehf5v","true","18","weiblich","rechts","Deutsch","","","null","","","","","","
      <img class=""person-img"" src=""https://raw.githubusercontent.com/saramff/face-recognition-images/refs/heads/master//women/woman_75.jpg"">
      <p class=""person-name"">Annie</p>
    ","","","",""
"null","","html-keyboard-response","305","2.0.0","362366","aakapu9x9tehf5v","true","18","weiblich","rechts","Deutsch","","","null","","","","","","<div style=""font-size:60px;"">+</div>","fixation","","",""
"null","","html-keyboard-response","306","2.0.0","363373","aakapu9x9tehf5v","true","18","weiblich","rechts","Deutsch","","","null","","","","","","
      <img class=""person-img"" src=""https://raw.githubusercontent.com/saramff/face-recognition-images/refs/heads/master//women/woman_5.jpg"">
      <p class=""person-name"">Frauke</p>
    ","","","",""
"null","","html-keyboard-response","307","2.0.0","364379","aakapu9x9tehf5v","true","18","weiblich","rechts","Deutsch","","","null","","","","","","<div style=""font-size:60px;"">+</div>","fixation","","",""
"null","","html-keyboard-response","308","2.0.0","365387","aakapu9x9tehf5v","true","18","weiblich","rechts","Deutsch","","","null","","","","","","
      <img class=""person-img"" src=""https://raw.githubusercontent.com/saramff/face-recognition-images/refs/heads/master//women/woman_53.jpg"">
      <p class=""person-name"">Claudia</p>
    ","","","",""
"null","","html-keyboard-response","309","2.0.0","366395","aakapu9x9tehf5v","true","18","weiblich","rechts","Deutsch","","","null","","","","","","<div style=""font-size:60px;"">+</div>","fixation","","",""
"null","","html-keyboard-response","310","2.0.0","367400","aakapu9x9tehf5v","true","18","weiblich","rechts","Deutsch","","","null","","","","","","
      <img class=""person-img"" src=""https://raw.githubusercontent.com/saramff/face-recognition-images/refs/heads/master//women/woman_36.jpg"">
      <p class=""person-name"">Amira</p>
    ","","","",""
"null","","html-keyboard-response","311","2.0.0","368407","aakapu9x9tehf5v","true","18","weiblich","rechts","Deutsch","","","null","","","","","","<div style=""font-size:60px;"">+</div>","fixation","","",""
"null","","html-keyboard-response","312","2.0.0","369413","aakapu9x9tehf5v","true","18","weiblich","rechts","Deutsch","","","null","","","","","","
      <img class=""person-img"" src=""https://raw.githubusercontent.com/saramff/face-recognition-images/refs/heads/master//men/man_44.jpg"">
      <p class=""person-name"">Ulrich</p>
    ","","","",""
"null","","html-keyboard-response","313","2.0.0","370420","aakapu9x9tehf5v","true","18","weiblich","rechts","Deutsch","","","null","","","","","","<div style=""font-size:60px;"">+</div>","fixation","","",""
"null","","html-keyboard-response","314","2.0.0","371426","aakapu9x9tehf5v","true","18","weiblich","rechts","Deutsch","","","null","","","","","","
      <img class=""person-img"" src=""https://raw.githubusercontent.com/saramff/face-recognition-images/refs/heads/master//men/man_3.jpg"">
      <p class=""person-name"">Noah</p>
    ","","","",""
"null","","html-keyboard-response","315","2.0.0","372432","aakapu9x9tehf5v","true","18","weiblich","rechts","Deutsch","","","null","","","","","","<div style=""font-size:60px;"">+</div>","fixation","","",""
"null","","html-keyboard-response","316","2.0.0","373442","aakapu9x9tehf5v","true","18","weiblich","rechts","Deutsch","","","null","","","","","","
      <img class=""person-img"" src=""https://raw.githubusercontent.com/saramff/face-recognition-images/refs/heads/master//men/man_73.jpg"">
      <p class=""person-name"">Jonathan</p>
    ","","","",""
"null","","html-keyboard-response","317","2.0.0","374447","aakapu9x9tehf5v","true","18","weiblich","rechts","Deutsch","","","null","","","","","","<div style=""font-size:60px;"">+</div>","fixation","","",""
"null","","html-keyboard-response","318","2.0.0","375455","aakapu9x9tehf5v","true","18","weiblich","rechts","Deutsch","","","null","","","","","","
      <img class=""person-img"" src=""https://raw.githubusercontent.com/saramff/face-recognition-images/refs/heads/master//women/woman_60.jpg"">
      <p class=""person-name"">Beate</p>
    ","","","",""
"null","","html-keyboard-response","319","2.0.0","376460","aakapu9x9tehf5v","true","18","weiblich","rechts","Deutsch","","","null","","","","","","<div style=""font-size:60px;"">+</div>","fixation","","",""
"null","","html-keyboard-response","320","2.0.0","377467","aakapu9x9tehf5v","true","18","weiblich","rechts","Deutsch","","","null","","","","","","
      <img class=""person-img"" src=""https://raw.githubusercontent.com/saramff/face-recognition-images/refs/heads/master//women/woman_91.jpg"">
      <p class=""person-name"">Ronja</p>
    ","","","",""
"null","","html-keyboard-response","321","2.0.0","378476","aakapu9x9tehf5v","true","18","weiblich","rechts","Deutsch","","","null","","","","","","<div style=""font-size:60px;"">+</div>","fixation","","",""
"null","","html-keyboard-response","322","2.0.0","379486","aakapu9x9tehf5v","true","18","weiblich","rechts","Deutsch","","","null","","","","","","
      <img class=""person-img"" src=""https://raw.githubusercontent.com/saramff/face-recognition-images/refs/heads/master//women/woman_18.jpg"">
      <p class=""person-name"">Johanna</p>
    ","","","",""
"null","","html-keyboard-response","323","2.0.0","380493","aakapu9x9tehf5v","true","18","weiblich","rechts","Deutsch","","","null","","","","","","<div style=""font-size:60px;"">+</div>","fixation","","",""
"null","","html-keyboard-response","324","2.0.0","381500","aakapu9x9tehf5v","true","18","weiblich","rechts","Deutsch","","","null","","","","","","
      <img class=""person-img"" src=""https://raw.githubusercontent.com/saramff/face-recognition-images/refs/heads/master//women/woman_20.jpg"">
      <p class=""person-name"">Paulina</p>
    ","","","",""
"null","","html-keyboard-response","325","2.0.0","382507","aakapu9x9tehf5v","true","18","weiblich","rechts","Deutsch","","","null","","","","","","<div style=""font-size:60px;"">+</div>","fixation","","",""
"null","","html-keyboard-response","326","2.0.0","383514","aakapu9x9tehf5v","true","18","weiblich","rechts","Deutsch","","","null","","","","","","
      <img class=""person-img"" src=""https://raw.githubusercontent.com/saramff/face-recognition-images/refs/heads/master//women/woman_90.jpg"">
      <p class=""person-name"">Jasmin</p>
    ","","","",""
"null","","html-keyboard-response","327","2.0.0","384520","aakapu9x9tehf5v","true","18","weiblich","rechts","Deutsch","","","null","","","","","","<div style=""font-size:60px;"">+</div>","fixation","","",""
"null","","html-keyboard-response","328","2.0.0","385525","aakapu9x9tehf5v","true","18","weiblich","rechts","Deutsch","","","null","","","","","","
      <img class=""person-img"" src=""https://raw.githubusercontent.com/saramff/face-recognition-images/refs/heads/master//women/woman_93.jpg"">
      <p class=""person-name"">Helena</p>
    ","","","",""
"null","","html-keyboard-response","329","2.0.0","386531","aakapu9x9tehf5v","true","18","weiblich","rechts","Deutsch","","","null","","","","","","<div style=""font-size:60px;"">+</div>","fixation","","",""
"null","","html-keyboard-response","330","2.0.0","387539","aakapu9x9tehf5v","true","18","weiblich","rechts","Deutsch","","","null","","","","","","
      <img class=""person-img"" src=""https://raw.githubusercontent.com/saramff/face-recognition-images/refs/heads/master//men/man_69.jpg"">
      <p class=""person-name"">Benedikt</p>
    ","","","",""
"null","","html-keyboard-response","331","2.0.0","388548","aakapu9x9tehf5v","true","18","weiblich","rechts","Deutsch","","","null","","","","","","<div style=""font-size:60px;"">+</div>","fixation","","",""
"null","","html-keyboard-response","332","2.0.0","389554","aakapu9x9tehf5v","true","18","weiblich","rechts","Deutsch","","","null","","","","","","
      <img class=""person-img"" src=""https://raw.githubusercontent.com/saramff/face-recognition-images/refs/heads/master//women/woman_47.jpg"">
      <p class=""person-name"">Michaela</p>
    ","","","",""
"null","","html-keyboard-response","333","2.0.0","390561","aakapu9x9tehf5v","true","18","weiblich","rechts","Deutsch","","","null","","","","","","<div style=""font-size:60px;"">+</div>","fixation","","",""
"null","","html-keyboard-response","334","2.0.0","391566","aakapu9x9tehf5v","true","18","weiblich","rechts","Deutsch","","","null","","","","","","
      <img class=""person-img"" src=""https://raw.githubusercontent.com/saramff/face-recognition-images/refs/heads/master//women/woman_92.jpg"">
      <p class=""person-name"">Julia</p>
    ","","","",""
"null","","html-keyboard-response","335","2.0.0","392573","aakapu9x9tehf5v","true","18","weiblich","rechts","Deutsch","","","null","","","","","","<div style=""font-size:60px;"">+</div>","fixation","","",""
"null","","html-keyboard-response","336","2.0.0","393579","aakapu9x9tehf5v","true","18","weiblich","rechts","Deutsch","","","null","","","","","","
      <img class=""person-img"" src=""https://raw.githubusercontent.com/saramff/face-recognition-images/refs/heads/master//men/man_59.jpg"">
      <p class=""person-name"">Hendrik</p>
    ","","","",""
"null","","html-keyboard-response","337","2.0.0","394588","aakapu9x9tehf5v","true","18","weiblich","rechts","Deutsch","","","null","","","","","","<div style=""font-size:60px;"">+</div>","fixation","","",""
"null","","html-keyboard-response","338","2.0.0","395592","aakapu9x9tehf5v","true","18","weiblich","rechts","Deutsch","","","null","","","","","","
      <img class=""person-img"" src=""https://raw.githubusercontent.com/saramff/face-recognition-images/refs/heads/master//men/man_31.jpg"">
      <p class=""person-name"">Emil</p>
    ","","","",""
"null","","html-keyboard-response","339","2.0.0","396600","aakapu9x9tehf5v","true","18","weiblich","rechts","Deutsch","","","null","","","","","","<div style=""font-size:60px;"">+</div>","fixation","","",""
"null","","html-keyboard-response","340","2.0.0","397607","aakapu9x9tehf5v","true","18","weiblich","rechts","Deutsch","","","null","","","","","","
      <img class=""person-img"" src=""https://raw.githubusercontent.com/saramff/face-recognition-images/refs/heads/master//women/woman_81.jpg"">
      <p class=""person-name"">Lea</p>
    ","","","",""
"null","","html-keyboard-response","341","2.0.0","398615","aakapu9x9tehf5v","true","18","weiblich","rechts","Deutsch","","","null","","","","","","<div style=""font-size:60px;"">+</div>","fixation","","",""
"null","","html-keyboard-response","342","2.0.0","399620","aakapu9x9tehf5v","true","18","weiblich","rechts","Deutsch","","","null","","","","","","
      <img class=""person-img"" src=""https://raw.githubusercontent.com/saramff/face-recognition-images/refs/heads/master//women/woman_72.jpg"">
      <p class=""person-name"">Nadine</p>
    ","","","",""
"null","","html-keyboard-response","343","2.0.0","400624","aakapu9x9tehf5v","true","18","weiblich","rechts","Deutsch","","","null","","","","","","<div style=""font-size:60px;"">+</div>","fixation","","",""
"null","","html-keyboard-response","344","2.0.0","401632","aakapu9x9tehf5v","true","18","weiblich","rechts","Deutsch","","","null","","","","","","
      <img class=""person-img"" src=""https://raw.githubusercontent.com/saramff/face-recognition-images/refs/heads/master//men/man_47.jpg"">
      <p class=""person-name"">Paul</p>
    ","","","",""
"null","","html-keyboard-response","345","2.0.0","402640","aakapu9x9tehf5v","true","18","weiblich","rechts","Deutsch","","","null","","","","","","<div style=""font-size:60px;"">+</div>","fixation","","",""
"null","","html-keyboard-response","346","2.0.0","403647","aakapu9x9tehf5v","true","18","weiblich","rechts","Deutsch","","","null","","","","","","
      <img class=""person-img"" src=""https://raw.githubusercontent.com/saramff/face-recognition-images/refs/heads/master//women/woman_31.jpg"">
      <p class=""person-name"">Christina</p>
    ","","","",""
"null","","html-keyboard-response","347","2.0.0","404654","aakapu9x9tehf5v","true","18","weiblich","rechts","Deutsch","","","null","","","","","","<div style=""font-size:60px;"">+</div>","fixation","","",""
"null","","html-keyboard-response","348","2.0.0","405659","aakapu9x9tehf5v","true","18","weiblich","rechts","Deutsch","","","null","","","","","","
      <img class=""person-img"" src=""https://raw.githubusercontent.com/saramff/face-recognition-images/refs/heads/master//women/woman_22.jpg"">
      <p class=""person-name"">Greta</p>
    ","","","",""
"null","","html-keyboard-response","349","2.0.0","406665","aakapu9x9tehf5v","true","18","weiblich","rechts","Deutsch","","","null","","","","","","<div style=""font-size:60px;"">+</div>","fixation","","",""
"null","","html-keyboard-response","350","2.0.0","407672","aakapu9x9tehf5v","true","18","weiblich","rechts","Deutsch","","","null","","","","","","
      <img class=""person-img"" src=""https://raw.githubusercontent.com/saramff/face-recognition-images/refs/heads/master//men/man_5.jpg"">
      <p class=""person-name"">Martin</p>
    ","","","",""
"null","","html-keyboard-response","351","2.0.0","408678","aakapu9x9tehf5v","true","18","weiblich","rechts","Deutsch","","","null","","","","","","<div style=""font-size:60px;"">+</div>","fixation","","",""
"null","","html-keyboard-response","352","2.0.0","409685","aakapu9x9tehf5v","true","18","weiblich","rechts","Deutsch","","","null","","","","","","
      <img class=""person-img"" src=""https://raw.githubusercontent.com/saramff/face-recognition-images/refs/heads/master//men/man_90.jpg"">
      <p class=""person-name"">David</p>
    ","","","",""
"null","","html-keyboard-response","353","2.0.0","410692","aakapu9x9tehf5v","true","18","weiblich","rechts","Deutsch","","","null","","","","","","<div style=""font-size:60px;"">+</div>","fixation","","",""
"null","","html-keyboard-response","354","2.0.0","411699","aakapu9x9tehf5v","true","18","weiblich","rechts","Deutsch","","","null","","","","","","
      <img class=""person-img"" src=""https://raw.githubusercontent.com/saramff/face-recognition-images/refs/heads/master//women/woman_67.jpg"">
      <p class=""person-name"">Leila</p>
    ","","","",""
"null","","html-keyboard-response","355","2.0.0","412706","aakapu9x9tehf5v","true","18","weiblich","rechts","Deutsch","","","null","","","","","","<div style=""font-size:60px;"">+</div>","fixation","","",""
"null","","html-keyboard-response","356","2.0.0","413711","aakapu9x9tehf5v","true","18","weiblich","rechts","Deutsch","","","null","","","","","","
      <img class=""person-img"" src=""https://raw.githubusercontent.com/saramff/face-recognition-images/refs/heads/master//men/man_2.jpg"">
      <p class=""person-name"">Jens</p>
    ","","","",""
"null","","html-keyboard-response","357","2.0.0","414717","aakapu9x9tehf5v","true","18","weiblich","rechts","Deutsch","","","null","","","","","","<div style=""font-size:60px;"">+</div>","fixation","","",""
"null","","html-keyboard-response","358","2.0.0","415723","aakapu9x9tehf5v","true","18","weiblich","rechts","Deutsch","","","null","","","","","","
      <img class=""person-img"" src=""https://raw.githubusercontent.com/saramff/face-recognition-images/refs/heads/master//men/man_52.jpg"">
      <p class=""person-name"">Frederik</p>
    ","","","",""
"null","","html-keyboard-response","359","2.0.0","416729","aakapu9x9tehf5v","true","18","weiblich","rechts","Deutsch","","","null","","","","","","<div style=""font-size:60px;"">+</div>","fixation","","",""
