"rt","url","trial_type","trial_index","plugin_version","time_elapsed","subject","fullscreen","age","gender","handedness","language","success","type","response","question_order","timeout","failed_images","failed_audio","failed_video","stimulus","task","correct_response","correct","correct_response_meaning"
"7451","consentA2.html","external-html","0","2.0.0","7536","vxzz42lhv8jvxg5","true","21","weiblich","rechts","andere","","","","","","","","","","","","",""
"9696","","fullscreen","1","2.0.0","18293","vxzz42lhv8jvxg5","true","21","weiblich","rechts","andere","true","","","","","","","","","","","",""
"3522","","survey-text","2","2.0.0","21841","vxzz42lhv8jvxg5","true","21","weiblich","rechts","andere","","demo","{""Q0"":""21""}","","","","","","","","","",""
"6920","","survey-multi-choice","3","2.0.0","28770","vxzz42lhv8jvxg5","true","21","weiblich","rechts","andere","","","{""gender"":""weiblich"",""handedness"":""rechts"",""language"":""andere""}","[0,1,2]","","","","","","","","",""
"","","preload","4","2.0.0","34326","vxzz42lhv8jvxg5","true","21","weiblich","rechts","andere","true","","","","false","[]","[]","[]","","","","",""
"","","preload","5","2.0.0","34860","vxzz42lhv8jvxg5","true","21","weiblich","rechts","andere","true","","","","false","[]","[]","[]","","","","",""
"","","preload","6","2.0.0","36141","vxzz42lhv8jvxg5","true","21","weiblich","rechts","andere","true","","","","false","[]","[]","[]","","","","",""
"5573","","html-keyboard-response","7","2.0.0","41717","vxzz42lhv8jvxg5","true","21","weiblich","rechts","andere","","","CapsLock","","","","","","Willkommen zum Experiment. Drücken Sie eine beliebige Taste, um zu beginnen.","","","",""
"12337","","html-keyboard-response","8","2.0.0","54057","vxzz42lhv8jvxg5","true","21","weiblich","rechts","andere","",""," ","","","","","","
    <p>In diesem Experiment werden nacheinander automatisch verschiedene Gesichter angezeigt.</p>
    <p>Bitte achten Sie genau auf jedes Gesicht und den dazugehörigen Namen.</p>
    <p>Die Gesichter erscheinen von selbst und Sie brauchen nichts weiter zu tun, außer aufmerksam zu sein.</p>
    <p>Drücken Sie eine beliebige Taste, um zu beginnen, wenn Sie bereit sind.</p>
  ","","","",""
"null","","html-keyboard-response","9","2.0.0","55073","vxzz42lhv8jvxg5","true","21","weiblich","rechts","andere","","","null","","","","","","<div style=""font-size:60px;"">+</div>","fixation","","",""
"null","","html-keyboard-response","10","2.0.0","56083","vxzz42lhv8jvxg5","true","21","weiblich","rechts","andere","","","null","","","","","","
      <img class=""person-img"" src=""https://raw.githubusercontent.com/saramff/face-recognition-images/refs/heads/master//men/man_33.jpg"">
      <p class=""person-name"">Alexander</p>
    ","","","",""
"null","","html-keyboard-response","11","2.0.0","57103","vxzz42lhv8jvxg5","true","21","weiblich","rechts","andere","","","null","","","","","","<div style=""font-size:60px;"">+</div>","fixation","","",""
"null","","html-keyboard-response","12","2.0.0","58113","vxzz42lhv8jvxg5","true","21","weiblich","rechts","andere","","","null","","","","","","
      <img class=""person-img"" src=""https://raw.githubusercontent.com/saramff/face-recognition-images/refs/heads/master//men/man_47.jpg"">
      <p class=""person-name"">Hendrik</p>
    ","","","",""
"null","","html-keyboard-response","13","2.0.0","59123","vxzz42lhv8jvxg5","true","21","weiblich","rechts","andere","","","null","","","","","","<div style=""font-size:60px;"">+</div>","fixation","","",""
"null","","html-keyboard-response","14","2.0.0","60131","vxzz42lhv8jvxg5","true","21","weiblich","rechts","andere","","","null","","","","","","
      <img class=""person-img"" src=""https://raw.githubusercontent.com/saramff/face-recognition-images/refs/heads/master//women/woman_39.jpg"">
      <p class=""person-name"">Ronja</p>
    ","","","",""
"null","","html-keyboard-response","15","2.0.0","61143","vxzz42lhv8jvxg5","true","21","weiblich","rechts","andere","","","null","","","","","","<div style=""font-size:60px;"">+</div>","fixation","","",""
"null","","html-keyboard-response","16","2.0.0","62153","vxzz42lhv8jvxg5","true","21","weiblich","rechts","andere","","","null","","","","","","
      <img class=""person-img"" src=""https://raw.githubusercontent.com/saramff/face-recognition-images/refs/heads/master//men/man_17.jpg"">
      <p class=""person-name"">Bruno</p>
    ","","","",""
"null","","html-keyboard-response","17","2.0.0","63163","vxzz42lhv8jvxg5","true","21","weiblich","rechts","andere","","","null","","","","","","<div style=""font-size:60px;"">+</div>","fixation","","",""
"null","","html-keyboard-response","18","2.0.0","64172","vxzz42lhv8jvxg5","true","21","weiblich","rechts","andere","","","null","","","","","","
      <img class=""person-img"" src=""https://raw.githubusercontent.com/saramff/face-recognition-images/refs/heads/master//men/man_18.jpg"">
      <p class=""person-name"">Bernd</p>
    ","","","",""
"null","","html-keyboard-response","19","2.0.0","65190","vxzz42lhv8jvxg5","true","21","weiblich","rechts","andere","","","null","","","","","","<div style=""font-size:60px;"">+</div>","fixation","","",""
"null","","html-keyboard-response","20","2.0.0","66195","vxzz42lhv8jvxg5","true","21","weiblich","rechts","andere","","","null","","","","","","
      <img class=""person-img"" src=""https://raw.githubusercontent.com/saramff/face-recognition-images/refs/heads/master//women/woman_48.jpg"">
      <p class=""person-name"">Katharina</p>
    ","","","",""
"null","","html-keyboard-response","21","2.0.0","67212","vxzz42lhv8jvxg5","true","21","weiblich","rechts","andere","","","null","","","","","","<div style=""font-size:60px;"">+</div>","fixation","","",""
"null","","html-keyboard-response","22","2.0.0","68224","vxzz42lhv8jvxg5","true","21","weiblich","rechts","andere","","","null","","","","","","
      <img class=""person-img"" src=""https://raw.githubusercontent.com/saramff/face-recognition-images/refs/heads/master//women/woman_26.jpg"">
      <p class=""person-name"">Aurelia</p>
    ","","","",""
"null","","html-keyboard-response","23","2.0.0","69233","vxzz42lhv8jvxg5","true","21","weiblich","rechts","andere","","","null","","","","","","<div style=""font-size:60px;"">+</div>","fixation","","",""
"null","","html-keyboard-response","24","2.0.0","70254","vxzz42lhv8jvxg5","true","21","weiblich","rechts","andere","","","null","","","","","","
      <img class=""person-img"" src=""https://raw.githubusercontent.com/saramff/face-recognition-images/refs/heads/master//women/woman_46.jpg"">
      <p class=""person-name"">Eva</p>
    ","","","",""
"null","","html-keyboard-response","25","2.0.0","71283","vxzz42lhv8jvxg5","true","21","weiblich","rechts","andere","","","null","","","","","","<div style=""font-size:60px;"">+</div>","fixation","","",""
"null","","html-keyboard-response","26","2.0.0","72313","vxzz42lhv8jvxg5","true","21","weiblich","rechts","andere","","","null","","","","","","
      <img class=""person-img"" src=""https://raw.githubusercontent.com/saramff/face-recognition-images/refs/heads/master//men/man_29.jpg"">
      <p class=""person-name"">Michael</p>
    ","","","",""
"null","","html-keyboard-response","27","2.0.0","73333","vxzz42lhv8jvxg5","true","21","weiblich","rechts","andere","","","null","","","","","","<div style=""font-size:60px;"">+</div>","fixation","","",""
"null","","html-keyboard-response","28","2.0.0","74343","vxzz42lhv8jvxg5","true","21","weiblich","rechts","andere","","","null","","","","","","
      <img class=""person-img"" src=""https://raw.githubusercontent.com/saramff/face-recognition-images/refs/heads/master//women/woman_32.jpg"">
      <p class=""person-name"">Sina</p>
    ","","","",""
"null","","html-keyboard-response","29","2.0.0","75363","vxzz42lhv8jvxg5","true","21","weiblich","rechts","andere","","","null","","","","","","<div style=""font-size:60px;"">+</div>","fixation","","",""
"null","","html-keyboard-response","30","2.0.0","76382","vxzz42lhv8jvxg5","true","21","weiblich","rechts","andere","","","null","","","","","","
      <img class=""person-img"" src=""https://raw.githubusercontent.com/saramff/face-recognition-images/refs/heads/master//women/woman_21.jpg"">
      <p class=""person-name"">Ariane</p>
    ","","","",""
"null","","html-keyboard-response","31","2.0.0","77403","vxzz42lhv8jvxg5","true","21","weiblich","rechts","andere","","","null","","","","","","<div style=""font-size:60px;"">+</div>","fixation","","",""
"null","","html-keyboard-response","32","2.0.0","78423","vxzz42lhv8jvxg5","true","21","weiblich","rechts","andere","","","null","","","","","","
      <img class=""person-img"" src=""https://raw.githubusercontent.com/saramff/face-recognition-images/refs/heads/master//men/man_85.jpg"">
      <p class=""person-name"">Achim</p>
    ","","","",""
"null","","html-keyboard-response","33","2.0.0","79454","vxzz42lhv8jvxg5","true","21","weiblich","rechts","andere","","","null","","","","","","<div style=""font-size:60px;"">+</div>","fixation","","",""
"null","","html-keyboard-response","34","2.0.0","80462","vxzz42lhv8jvxg5","true","21","weiblich","rechts","andere","","","null","","","","","","
      <img class=""person-img"" src=""https://raw.githubusercontent.com/saramff/face-recognition-images/refs/heads/master//women/woman_8.jpg"">
      <p class=""person-name"">Viktoria</p>
    ","","","",""
"null","","html-keyboard-response","35","2.0.0","81484","vxzz42lhv8jvxg5","true","21","weiblich","rechts","andere","","","null","","","","","","<div style=""font-size:60px;"">+</div>","fixation","","",""
"null","","html-keyboard-response","36","2.0.0","82503","vxzz42lhv8jvxg5","true","21","weiblich","rechts","andere","","","null","","","","","","
      <img class=""person-img"" src=""https://raw.githubusercontent.com/saramff/face-recognition-images/refs/heads/master//men/man_12.jpg"">
      <p class=""person-name"">Robin</p>
    ","","","",""
"null","","html-keyboard-response","37","2.0.0","83526","vxzz42lhv8jvxg5","true","21","weiblich","rechts","andere","","","null","","","","","","<div style=""font-size:60px;"">+</div>","fixation","","",""
"null","","html-keyboard-response","38","2.0.0","84543","vxzz42lhv8jvxg5","true","21","weiblich","rechts","andere","","","null","","","","","","
      <img class=""person-img"" src=""https://raw.githubusercontent.com/saramff/face-recognition-images/refs/heads/master//women/woman_72.jpg"">
      <p class=""person-name"">Hannah</p>
    ","","","",""
"null","","html-keyboard-response","39","2.0.0","85562","vxzz42lhv8jvxg5","true","21","weiblich","rechts","andere","","","null","","","","","","<div style=""font-size:60px;"">+</div>","fixation","","",""
"null","","html-keyboard-response","40","2.0.0","86583","vxzz42lhv8jvxg5","true","21","weiblich","rechts","andere","","","null","","","","","","
      <img class=""person-img"" src=""https://raw.githubusercontent.com/saramff/face-recognition-images/refs/heads/master//women/woman_90.jpg"">
      <p class=""person-name"">Ariane</p>
    ","","","",""
"null","","html-keyboard-response","41","2.0.0","87604","vxzz42lhv8jvxg5","true","21","weiblich","rechts","andere","","","null","","","","","","<div style=""font-size:60px;"">+</div>","fixation","","",""
"null","","html-keyboard-response","42","2.0.0","88613","vxzz42lhv8jvxg5","true","21","weiblich","rechts","andere","","","null","","","","","","
      <img class=""person-img"" src=""https://raw.githubusercontent.com/saramff/face-recognition-images/refs/heads/master//women/woman_55.jpg"">
      <p class=""person-name"">Nicole</p>
    ","","","",""
"null","","html-keyboard-response","43","2.0.0","89633","vxzz42lhv8jvxg5","true","21","weiblich","rechts","andere","","","null","","","","","","<div style=""font-size:60px;"">+</div>","fixation","","",""
"null","","html-keyboard-response","44","2.0.0","90653","vxzz42lhv8jvxg5","true","21","weiblich","rechts","andere","","","null","","","","","","
      <img class=""person-img"" src=""https://raw.githubusercontent.com/saramff/face-recognition-images/refs/heads/master//men/man_40.jpg"">
      <p class=""person-name"">Jochen</p>
    ","","","",""
"null","","html-keyboard-response","45","2.0.0","91673","vxzz42lhv8jvxg5","true","21","weiblich","rechts","andere","","","null","","","","","","<div style=""font-size:60px;"">+</div>","fixation","","",""
"null","","html-keyboard-response","46","2.0.0","92682","vxzz42lhv8jvxg5","true","21","weiblich","rechts","andere","","","null","","","","","","
      <img class=""person-img"" src=""https://raw.githubusercontent.com/saramff/face-recognition-images/refs/heads/master//men/man_94.jpg"">
      <p class=""person-name"">Benedikt</p>
    ","","","",""
"null","","html-keyboard-response","47","2.0.0","93704","vxzz42lhv8jvxg5","true","21","weiblich","rechts","andere","","","null","","","","","","<div style=""font-size:60px;"">+</div>","fixation","","",""
"null","","html-keyboard-response","48","2.0.0","94723","vxzz42lhv8jvxg5","true","21","weiblich","rechts","andere","","","null","","","","","","
      <img class=""person-img"" src=""https://raw.githubusercontent.com/saramff/face-recognition-images/refs/heads/master//women/woman_44.jpg"">
      <p class=""person-name"">Lucie</p>
    ","","","",""
"null","","html-keyboard-response","49","2.0.0","95743","vxzz42lhv8jvxg5","true","21","weiblich","rechts","andere","","","null","","","","","","<div style=""font-size:60px;"">+</div>","fixation","","",""
"null","","html-keyboard-response","50","2.0.0","96754","vxzz42lhv8jvxg5","true","21","weiblich","rechts","andere","","","null","","","","","","
      <img class=""person-img"" src=""https://raw.githubusercontent.com/saramff/face-recognition-images/refs/heads/master//women/woman_73.jpg"">
      <p class=""person-name"">Lilly</p>
    ","","","",""
"null","","html-keyboard-response","51","2.0.0","97773","vxzz42lhv8jvxg5","true","21","weiblich","rechts","andere","","","null","","","","","","<div style=""font-size:60px;"">+</div>","fixation","","",""
"null","","html-keyboard-response","52","2.0.0","98782","vxzz42lhv8jvxg5","true","21","weiblich","rechts","andere","","","null","","","","","","
      <img class=""person-img"" src=""https://raw.githubusercontent.com/saramff/face-recognition-images/refs/heads/master//women/woman_78.jpg"">
      <p class=""person-name"">Paulina</p>
    ","","","",""
"null","","html-keyboard-response","53","2.0.0","99802","vxzz42lhv8jvxg5","true","21","weiblich","rechts","andere","","","null","","","","","","<div style=""font-size:60px;"">+</div>","fixation","","",""
"null","","html-keyboard-response","54","2.0.0","100823","vxzz42lhv8jvxg5","true","21","weiblich","rechts","andere","","","null","","","","","","
      <img class=""person-img"" src=""https://raw.githubusercontent.com/saramff/face-recognition-images/refs/heads/master//women/woman_57.jpg"">
      <p class=""person-name"">Charlotte</p>
    ","","","",""
"null","","html-keyboard-response","55","2.0.0","101845","vxzz42lhv8jvxg5","true","21","weiblich","rechts","andere","","","null","","","","","","<div style=""font-size:60px;"">+</div>","fixation","","",""
"null","","html-keyboard-response","56","2.0.0","102853","vxzz42lhv8jvxg5","true","21","weiblich","rechts","andere","","","null","","","","","","
      <img class=""person-img"" src=""https://raw.githubusercontent.com/saramff/face-recognition-images/refs/heads/master//men/man_95.jpg"">
      <p class=""person-name"">Jakob</p>
    ","","","",""
"null","","html-keyboard-response","57","2.0.0","103874","vxzz42lhv8jvxg5","true","21","weiblich","rechts","andere","","","null","","","","","","<div style=""font-size:60px;"">+</div>","fixation","","",""
"null","","html-keyboard-response","58","2.0.0","104894","vxzz42lhv8jvxg5","true","21","weiblich","rechts","andere","","","null","","","","","","
      <img class=""person-img"" src=""https://raw.githubusercontent.com/saramff/face-recognition-images/refs/heads/master//women/woman_96.jpg"">
      <p class=""person-name"">Finja</p>
    ","","","",""
"null","","html-keyboard-response","59","2.0.0","105913","vxzz42lhv8jvxg5","true","21","weiblich","rechts","andere","","","null","","","","","","<div style=""font-size:60px;"">+</div>","fixation","","",""
"null","","html-keyboard-response","60","2.0.0","106933","vxzz42lhv8jvxg5","true","21","weiblich","rechts","andere","","","null","","","","","","
      <img class=""person-img"" src=""https://raw.githubusercontent.com/saramff/face-recognition-images/refs/heads/master//men/man_80.jpg"">
      <p class=""person-name"">Karl</p>
    ","","","",""
"null","","html-keyboard-response","61","2.0.0","107950","vxzz42lhv8jvxg5","true","21","weiblich","rechts","andere","","","null","","","","","","<div style=""font-size:60px;"">+</div>","fixation","","",""
"null","","html-keyboard-response","62","2.0.0","108963","vxzz42lhv8jvxg5","true","21","weiblich","rechts","andere","","","null","","","","","","
      <img class=""person-img"" src=""https://raw.githubusercontent.com/saramff/face-recognition-images/refs/heads/master//women/woman_69.jpg"">
      <p class=""person-name"">Annie</p>
    ","","","",""
"null","","html-keyboard-response","63","2.0.0","109983","vxzz42lhv8jvxg5","true","21","weiblich","rechts","andere","","","null","","","","","","<div style=""font-size:60px;"">+</div>","fixation","","",""
"null","","html-keyboard-response","64","2.0.0","110993","vxzz42lhv8jvxg5","true","21","weiblich","rechts","andere","","","null","","","","","","
      <img class=""person-img"" src=""https://raw.githubusercontent.com/saramff/face-recognition-images/refs/heads/master//women/woman_54.jpg"">
      <p class=""person-name"">Ella</p>
    ","","","",""
"null","","html-keyboard-response","65","2.0.0","112012","vxzz42lhv8jvxg5","true","21","weiblich","rechts","andere","","","null","","","","","","<div style=""font-size:60px;"">+</div>","fixation","","",""
"null","","html-keyboard-response","66","2.0.0","113024","vxzz42lhv8jvxg5","true","21","weiblich","rechts","andere","","","null","","","","","","
      <img class=""person-img"" src=""https://raw.githubusercontent.com/saramff/face-recognition-images/refs/heads/master//men/man_43.jpg"">
      <p class=""person-name"">Dirk</p>
    ","","","",""
"null","","html-keyboard-response","67","2.0.0","114063","vxzz42lhv8jvxg5","true","21","weiblich","rechts","andere","","","null","","","","","","<div style=""font-size:60px;"">+</div>","fixation","","",""
"null","","html-keyboard-response","68","2.0.0","115074","vxzz42lhv8jvxg5","true","21","weiblich","rechts","andere","","","null","","","","","","
      <img class=""person-img"" src=""https://raw.githubusercontent.com/saramff/face-recognition-images/refs/heads/master//men/man_60.jpg"">
      <p class=""person-name"">Ludwig</p>
    ","","","",""
"null","","html-keyboard-response","69","2.0.0","116092","vxzz42lhv8jvxg5","true","21","weiblich","rechts","andere","","","null","","","","","","<div style=""font-size:60px;"">+</div>","fixation","","",""
"null","","html-keyboard-response","70","2.0.0","117103","vxzz42lhv8jvxg5","true","21","weiblich","rechts","andere","","","null","","","","","","
      <img class=""person-img"" src=""https://raw.githubusercontent.com/saramff/face-recognition-images/refs/heads/master//men/man_67.jpg"">
      <p class=""person-name"">Gabriel</p>
    ","","","",""
"null","","html-keyboard-response","71","2.0.0","118123","vxzz42lhv8jvxg5","true","21","weiblich","rechts","andere","","","null","","","","","","<div style=""font-size:60px;"">+</div>","fixation","","",""
"null","","html-keyboard-response","72","2.0.0","119134","vxzz42lhv8jvxg5","true","21","weiblich","rechts","andere","","","null","","","","","","
      <img class=""person-img"" src=""https://raw.githubusercontent.com/saramff/face-recognition-images/refs/heads/master//men/man_87.jpg"">
      <p class=""person-name"">Sven</p>
    ","","","",""
"null","","html-keyboard-response","73","2.0.0","120144","vxzz42lhv8jvxg5","true","21","weiblich","rechts","andere","","","null","","","","","","<div style=""font-size:60px;"">+</div>","fixation","","",""
"null","","html-keyboard-response","74","2.0.0","121154","vxzz42lhv8jvxg5","true","21","weiblich","rechts","andere","","","null","","","","","","
      <img class=""person-img"" src=""https://raw.githubusercontent.com/saramff/face-recognition-images/refs/heads/master//women/woman_68.jpg"">
      <p class=""person-name"">Bianca</p>
    ","","","",""
"null","","html-keyboard-response","75","2.0.0","122184","vxzz42lhv8jvxg5","true","21","weiblich","rechts","andere","","","null","","","","","","<div style=""font-size:60px;"">+</div>","fixation","","",""
"null","","html-keyboard-response","76","2.0.0","123195","vxzz42lhv8jvxg5","true","21","weiblich","rechts","andere","","","null","","","","","","
      <img class=""person-img"" src=""https://raw.githubusercontent.com/saramff/face-recognition-images/refs/heads/master//men/man_15.jpg"">
      <p class=""person-name"">Udo</p>
    ","","","",""
"null","","html-keyboard-response","77","2.0.0","124213","vxzz42lhv8jvxg5","true","21","weiblich","rechts","andere","","","null","","","","","","<div style=""font-size:60px;"">+</div>","fixation","","",""
"null","","html-keyboard-response","78","2.0.0","125233","vxzz42lhv8jvxg5","true","21","weiblich","rechts","andere","","","null","","","","","","
      <img class=""person-img"" src=""https://raw.githubusercontent.com/saramff/face-recognition-images/refs/heads/master//women/woman_62.jpg"">
      <p class=""person-name"">Celine</p>
    ","","","",""
"null","","html-keyboard-response","79","2.0.0","126253","vxzz42lhv8jvxg5","true","21","weiblich","rechts","andere","","","null","","","","","","<div style=""font-size:60px;"">+</div>","fixation","","",""
"null","","html-keyboard-response","80","2.0.0","127268","vxzz42lhv8jvxg5","true","21","weiblich","rechts","andere","","","null","","","","","","
      <img class=""person-img"" src=""https://raw.githubusercontent.com/saramff/face-recognition-images/refs/heads/master//women/woman_50.jpg"">
      <p class=""person-name"">Anja</p>
    ","","","",""
"null","","html-keyboard-response","81","2.0.0","128293","vxzz42lhv8jvxg5","true","21","weiblich","rechts","andere","","","null","","","","","","<div style=""font-size:60px;"">+</div>","fixation","","",""
"null","","html-keyboard-response","82","2.0.0","129303","vxzz42lhv8jvxg5","true","21","weiblich","rechts","andere","","","null","","","","","","
      <img class=""person-img"" src=""https://raw.githubusercontent.com/saramff/face-recognition-images/refs/heads/master//women/woman_9.jpg"">
      <p class=""person-name"">Julia</p>
    ","","","",""
"null","","html-keyboard-response","83","2.0.0","130313","vxzz42lhv8jvxg5","true","21","weiblich","rechts","andere","","","null","","","","","","<div style=""font-size:60px;"">+</div>","fixation","","",""
"null","","html-keyboard-response","84","2.0.0","131323","vxzz42lhv8jvxg5","true","21","weiblich","rechts","andere","","","null","","","","","","
      <img class=""person-img"" src=""https://raw.githubusercontent.com/saramff/face-recognition-images/refs/heads/master//women/woman_41.jpg"">
      <p class=""person-name"">Beate</p>
    ","","","",""
"null","","html-keyboard-response","85","2.0.0","132351","vxzz42lhv8jvxg5","true","21","weiblich","rechts","andere","","","null","","","","","","<div style=""font-size:60px;"">+</div>","fixation","","",""
"null","","html-keyboard-response","86","2.0.0","133363","vxzz42lhv8jvxg5","true","21","weiblich","rechts","andere","","","null","","","","","","
      <img class=""person-img"" src=""https://raw.githubusercontent.com/saramff/face-recognition-images/refs/heads/master//men/man_89.jpg"">
      <p class=""person-name"">Daniel</p>
    ","","","",""
"null","","html-keyboard-response","87","2.0.0","134393","vxzz42lhv8jvxg5","true","21","weiblich","rechts","andere","","","null","","","","","","<div style=""font-size:60px;"">+</div>","fixation","","",""
"null","","html-keyboard-response","88","2.0.0","135412","vxzz42lhv8jvxg5","true","21","weiblich","rechts","andere","","","null","","","","","","
      <img class=""person-img"" src=""https://raw.githubusercontent.com/saramff/face-recognition-images/refs/heads/master//men/man_27.jpg"">
      <p class=""person-name"">Olaf</p>
    ","","","",""
"null","","html-keyboard-response","89","2.0.0","136433","vxzz42lhv8jvxg5","true","21","weiblich","rechts","andere","","","null","","","","","","<div style=""font-size:60px;"">+</div>","fixation","","",""
"null","","html-keyboard-response","90","2.0.0","137452","vxzz42lhv8jvxg5","true","21","weiblich","rechts","andere","","","null","","","","","","
      <img class=""person-img"" src=""https://raw.githubusercontent.com/saramff/face-recognition-images/refs/heads/master//women/woman_17.jpg"">
      <p class=""person-name"">Frauke</p>
    ","","","",""
"null","","html-keyboard-response","91","2.0.0","138472","vxzz42lhv8jvxg5","true","21","weiblich","rechts","andere","","","null","","","","","","<div style=""font-size:60px;"">+</div>","fixation","","",""
"null","","html-keyboard-response","92","2.0.0","139482","vxzz42lhv8jvxg5","true","21","weiblich","rechts","andere","","","null","","","","","","
      <img class=""person-img"" src=""https://raw.githubusercontent.com/saramff/face-recognition-images/refs/heads/master//men/man_48.jpg"">
      <p class=""person-name"">Thomas</p>
    ","","","",""
"null","","html-keyboard-response","93","2.0.0","140493","vxzz42lhv8jvxg5","true","21","weiblich","rechts","andere","","","null","","","","","","<div style=""font-size:60px;"">+</div>","fixation","","",""
"null","","html-keyboard-response","94","2.0.0","141504","vxzz42lhv8jvxg5","true","21","weiblich","rechts","andere","","","null","","","","","","
      <img class=""person-img"" src=""https://raw.githubusercontent.com/saramff/face-recognition-images/refs/heads/master//men/man_39.jpg"">
      <p class=""person-name"">Kilian</p>
    ","","","",""
"null","","html-keyboard-response","95","2.0.0","142522","vxzz42lhv8jvxg5","true","21","weiblich","rechts","andere","","","null","","","","","","<div style=""font-size:60px;"">+</div>","fixation","","",""
"null","","html-keyboard-response","96","2.0.0","143543","vxzz42lhv8jvxg5","true","21","weiblich","rechts","andere","","","null","","","","","","
      <img class=""person-img"" src=""https://raw.githubusercontent.com/saramff/face-recognition-images/refs/heads/master//men/man_6.jpg"">
      <p class=""person-name"">Albert</p>
    ","","","",""
"null","","html-keyboard-response","97","2.0.0","144573","vxzz42lhv8jvxg5","true","21","weiblich","rechts","andere","","","null","","","","","","<div style=""font-size:60px;"">+</div>","fixation","","",""
"null","","html-keyboard-response","98","2.0.0","145593","vxzz42lhv8jvxg5","true","21","weiblich","rechts","andere","","","null","","","","","","
      <img class=""person-img"" src=""https://raw.githubusercontent.com/saramff/face-recognition-images/refs/heads/master//women/woman_60.jpg"">
      <p class=""person-name"">Rosalie</p>
    ","","","",""
"null","","html-keyboard-response","99","2.0.0","146612","vxzz42lhv8jvxg5","true","21","weiblich","rechts","andere","","","null","","","","","","<div style=""font-size:60px;"">+</div>","fixation","","",""
"null","","html-keyboard-response","100","2.0.0","147623","vxzz42lhv8jvxg5","true","21","weiblich","rechts","andere","","","null","","","","","","
      <img class=""person-img"" src=""https://raw.githubusercontent.com/saramff/face-recognition-images/refs/heads/master//women/woman_94.jpg"">
      <p class=""person-name"">Marta</p>
    ","","","",""
"null","","html-keyboard-response","101","2.0.0","148653","vxzz42lhv8jvxg5","true","21","weiblich","rechts","andere","","","null","","","","","","<div style=""font-size:60px;"">+</div>","fixation","","",""
"null","","html-keyboard-response","102","2.0.0","149673","vxzz42lhv8jvxg5","true","21","weiblich","rechts","andere","","","null","","","","","","
      <img class=""person-img"" src=""https://raw.githubusercontent.com/saramff/face-recognition-images/refs/heads/master//men/man_73.jpg"">
      <p class=""person-name"">Peter</p>
    ","","","",""
"null","","html-keyboard-response","103","2.0.0","150692","vxzz42lhv8jvxg5","true","21","weiblich","rechts","andere","","","null","","","","","","<div style=""font-size:60px;"">+</div>","fixation","","",""
"null","","html-keyboard-response","104","2.0.0","151702","vxzz42lhv8jvxg5","true","21","weiblich","rechts","andere","","","null","","","","","","
      <img class=""person-img"" src=""https://raw.githubusercontent.com/saramff/face-recognition-images/refs/heads/master//women/woman_89.jpg"">
      <p class=""person-name"">Selma</p>
    ","","","",""
"null","","html-keyboard-response","105","2.0.0","152732","vxzz42lhv8jvxg5","true","21","weiblich","rechts","andere","","","null","","","","","","<div style=""font-size:60px;"">+</div>","fixation","","",""
"null","","html-keyboard-response","106","2.0.0","153744","vxzz42lhv8jvxg5","true","21","weiblich","rechts","andere","","","null","","","","","","
      <img class=""person-img"" src=""https://raw.githubusercontent.com/saramff/face-recognition-images/refs/heads/master//women/woman_13.jpg"">
      <p class=""person-name"">Mathilda</p>
    ","","","",""
"null","","html-keyboard-response","107","2.0.0","154763","vxzz42lhv8jvxg5","true","21","weiblich","rechts","andere","","","null","","","","","","<div style=""font-size:60px;"">+</div>","fixation","","",""
"null","","html-keyboard-response","108","2.0.0","155773","vxzz42lhv8jvxg5","true","21","weiblich","rechts","andere","","","null","","","","","","
      <img class=""person-img"" src=""https://raw.githubusercontent.com/saramff/face-recognition-images/refs/heads/master//women/woman_18.jpg"">
      <p class=""person-name"">Lisa</p>
    ","","","",""
"null","","html-keyboard-response","109","2.0.0","156793","vxzz42lhv8jvxg5","true","21","weiblich","rechts","andere","","","null","","","","","","<div style=""font-size:60px;"">+</div>","fixation","","",""
"null","","html-keyboard-response","110","2.0.0","157802","vxzz42lhv8jvxg5","true","21","weiblich","rechts","andere","","","null","","","","","","
      <img class=""person-img"" src=""https://raw.githubusercontent.com/saramff/face-recognition-images/refs/heads/master//men/man_77.jpg"">
      <p class=""person-name"">Julian</p>
    ","","","",""
"null","","html-keyboard-response","111","2.0.0","158813","vxzz42lhv8jvxg5","true","21","weiblich","rechts","andere","","","null","","","","","","<div style=""font-size:60px;"">+</div>","fixation","","",""
"null","","html-keyboard-response","112","2.0.0","159833","vxzz42lhv8jvxg5","true","21","weiblich","rechts","andere","","","null","","","","","","
      <img class=""person-img"" src=""https://raw.githubusercontent.com/saramff/face-recognition-images/refs/heads/master//men/man_4.jpg"">
      <p class=""person-name"">Marius</p>
    ","","","",""
"null","","html-keyboard-response","113","2.0.0","160839","vxzz42lhv8jvxg5","true","21","weiblich","rechts","andere","","","null","","","","","","<div style=""font-size:60px;"">+</div>","fixation","","",""
"null","","html-keyboard-response","114","2.0.0","161844","vxzz42lhv8jvxg5","true","21","weiblich","rechts","andere","","","null","","","","","","
      <img class=""person-img"" src=""https://raw.githubusercontent.com/saramff/face-recognition-images/refs/heads/master//women/woman_63.jpg"">
      <p class=""person-name"">Viola</p>
    ","","","",""
"null","","html-keyboard-response","115","2.0.0","162873","vxzz42lhv8jvxg5","true","21","weiblich","rechts","andere","","","null","","","","","","<div style=""font-size:60px;"">+</div>","fixation","","",""
"null","","html-keyboard-response","116","2.0.0","163882","vxzz42lhv8jvxg5","true","21","weiblich","rechts","andere","","","null","","","","","","
      <img class=""person-img"" src=""https://raw.githubusercontent.com/saramff/face-recognition-images/refs/heads/master//men/man_74.jpg"">
      <p class=""person-name"">Oliver</p>
    ","","","",""
"null","","html-keyboard-response","117","2.0.0","164902","vxzz42lhv8jvxg5","true","21","weiblich","rechts","andere","","","null","","","","","","<div style=""font-size:60px;"">+</div>","fixation","","",""
"null","","html-keyboard-response","118","2.0.0","165907","vxzz42lhv8jvxg5","true","21","weiblich","rechts","andere","","","null","","","","","","
      <img class=""person-img"" src=""https://raw.githubusercontent.com/saramff/face-recognition-images/refs/heads/master//men/man_75.jpg"">
      <p class=""person-name"">Emil</p>
    ","","","",""
"null","","html-keyboard-response","119","2.0.0","166918","vxzz42lhv8jvxg5","true","21","weiblich","rechts","andere","","","null","","","","","","<div style=""font-size:60px;"">+</div>","fixation","","",""
"null","","html-keyboard-response","120","2.0.0","167923","vxzz42lhv8jvxg5","true","21","weiblich","rechts","andere","","","null","","","","","","
      <img class=""person-img"" src=""https://raw.githubusercontent.com/saramff/face-recognition-images/refs/heads/master//men/man_14.jpg"">
      <p class=""person-name"">Marcel</p>
    ","","","",""
"null","","html-keyboard-response","121","2.0.0","168953","vxzz42lhv8jvxg5","true","21","weiblich","rechts","andere","","","null","","","","","","<div style=""font-size:60px;"">+</div>","fixation","","",""
"null","","html-keyboard-response","122","2.0.0","169972","vxzz42lhv8jvxg5","true","21","weiblich","rechts","andere","","","null","","","","","","
      <img class=""person-img"" src=""https://raw.githubusercontent.com/saramff/face-recognition-images/refs/heads/master//men/man_10.jpg"">
      <p class=""person-name"">Konrad</p>
    ","","","",""
"null","","html-keyboard-response","123","2.0.0","170992","vxzz42lhv8jvxg5","true","21","weiblich","rechts","andere","","","null","","","","","","<div style=""font-size:60px;"">+</div>","fixation","","",""
"null","","html-keyboard-response","124","2.0.0","172004","vxzz42lhv8jvxg5","true","21","weiblich","rechts","andere","","","null","","","","","","
      <img class=""person-img"" src=""https://raw.githubusercontent.com/saramff/face-recognition-images/refs/heads/master//men/man_36.jpg"">
      <p class=""person-name"">Leonard</p>
    ","","","",""
"null","","html-keyboard-response","125","2.0.0","173022","vxzz42lhv8jvxg5","true","21","weiblich","rechts","andere","","","null","","","","","","<div style=""font-size:60px;"">+</div>","fixation","","",""
"null","","html-keyboard-response","126","2.0.0","174034","vxzz42lhv8jvxg5","true","21","weiblich","rechts","andere","","","null","","","","","","
      <img class=""person-img"" src=""https://raw.githubusercontent.com/saramff/face-recognition-images/refs/heads/master//women/woman_14.jpg"">
      <p class=""person-name"">Alma</p>
    ","","","",""
"null","","html-keyboard-response","127","2.0.0","175053","vxzz42lhv8jvxg5","true","21","weiblich","rechts","andere","","","null","","","","","","<div style=""font-size:60px;"">+</div>","fixation","","",""
"null","","html-keyboard-response","128","2.0.0","176062","vxzz42lhv8jvxg5","true","21","weiblich","rechts","andere","","","null","","","","","","
      <img class=""person-img"" src=""https://raw.githubusercontent.com/saramff/face-recognition-images/refs/heads/master//men/man_3.jpg"">
      <p class=""person-name"">Anton</p>
    ","","","",""
"null","","html-keyboard-response","129","2.0.0","177083","vxzz42lhv8jvxg5","true","21","weiblich","rechts","andere","","","null","","","","","","<div style=""font-size:60px;"">+</div>","fixation","","",""
"null","","html-keyboard-response","130","2.0.0","178093","vxzz42lhv8jvxg5","true","21","weiblich","rechts","andere","","","null","","","","","","
      <img class=""person-img"" src=""https://raw.githubusercontent.com/saramff/face-recognition-images/refs/heads/master//women/woman_2.jpg"">
      <p class=""person-name"">Michaela</p>
    ","","","",""
"null","","html-keyboard-response","131","2.0.0","179102","vxzz42lhv8jvxg5","true","21","weiblich","rechts","andere","","","null","","","","","","<div style=""font-size:60px;"">+</div>","fixation","","",""
"null","","html-keyboard-response","132","2.0.0","180112","vxzz42lhv8jvxg5","true","21","weiblich","rechts","andere","","","null","","","","","","
      <img class=""person-img"" src=""https://raw.githubusercontent.com/saramff/face-recognition-images/refs/heads/master//men/man_86.jpg"">
      <p class=""person-name"">Ulrich</p>
    ","","","",""
"null","","html-keyboard-response","133","2.0.0","181132","vxzz42lhv8jvxg5","true","21","weiblich","rechts","andere","","","null","","","","","","<div style=""font-size:60px;"">+</div>","fixation","","",""
"null","","html-keyboard-response","134","2.0.0","182143","vxzz42lhv8jvxg5","true","21","weiblich","rechts","andere","","","null","","","","","","
      <img class=""person-img"" src=""https://raw.githubusercontent.com/saramff/face-recognition-images/refs/heads/master//men/man_62.jpg"">
      <p class=""person-name"">Karsten</p>
    ","","","",""
"null","","html-keyboard-response","135","2.0.0","183153","vxzz42lhv8jvxg5","true","21","weiblich","rechts","andere","","","null","","","","","","<div style=""font-size:60px;"">+</div>","fixation","","",""
"null","","html-keyboard-response","136","2.0.0","184162","vxzz42lhv8jvxg5","true","21","weiblich","rechts","andere","","","null","","","","","","
      <img class=""person-img"" src=""https://raw.githubusercontent.com/saramff/face-recognition-images/refs/heads/master//women/woman_11.jpg"">
      <p class=""person-name"">Jasmin</p>
    ","","","",""
"null","","html-keyboard-response","137","2.0.0","185192","vxzz42lhv8jvxg5","true","21","weiblich","rechts","andere","","","null","","","","","","<div style=""font-size:60px;"">+</div>","fixation","","",""
"null","","html-keyboard-response","138","2.0.0","186202","vxzz42lhv8jvxg5","true","21","weiblich","rechts","andere","","","null","","","","","","
      <img class=""person-img"" src=""https://raw.githubusercontent.com/saramff/face-recognition-images/refs/heads/master//women/woman_93.jpg"">
      <p class=""person-name"">Frieda</p>
    ","","","",""
"null","","html-keyboard-response","139","2.0.0","187234","vxzz42lhv8jvxg5","true","21","weiblich","rechts","andere","","","null","","","","","","<div style=""font-size:60px;"">+</div>","fixation","","",""
"null","","html-keyboard-response","140","2.0.0","188244","vxzz42lhv8jvxg5","true","21","weiblich","rechts","andere","","","null","","","","","","
      <img class=""person-img"" src=""https://raw.githubusercontent.com/saramff/face-recognition-images/refs/heads/master//men/man_25.jpg"">
      <p class=""person-name"">Thorsten</p>
    ","","","",""
"null","","html-keyboard-response","141","2.0.0","189262","vxzz42lhv8jvxg5","true","21","weiblich","rechts","andere","","","null","","","","","","<div style=""font-size:60px;"">+</div>","fixation","","",""
"null","","html-keyboard-response","142","2.0.0","190273","vxzz42lhv8jvxg5","true","21","weiblich","rechts","andere","","","null","","","","","","
      <img class=""person-img"" src=""https://raw.githubusercontent.com/saramff/face-recognition-images/refs/heads/master//men/man_32.jpg"">
      <p class=""person-name"">Steffen</p>
    ","","","",""
"null","","html-keyboard-response","143","2.0.0","191303","vxzz42lhv8jvxg5","true","21","weiblich","rechts","andere","","","null","","","","","","<div style=""font-size:60px;"">+</div>","fixation","","",""
"null","","html-keyboard-response","144","2.0.0","192317","vxzz42lhv8jvxg5","true","21","weiblich","rechts","andere","","","null","","","","","","
      <img class=""person-img"" src=""https://raw.githubusercontent.com/saramff/face-recognition-images/refs/heads/master//women/woman_19.jpg"">
      <p class=""person-name"">Sophia</p>
    ","","","",""
"null","","html-keyboard-response","145","2.0.0","193353","vxzz42lhv8jvxg5","true","21","weiblich","rechts","andere","","","null","","","","","","<div style=""font-size:60px;"">+</div>","fixation","","",""
"null","","html-keyboard-response","146","2.0.0","194373","vxzz42lhv8jvxg5","true","21","weiblich","rechts","andere","","","null","","","","","","
      <img class=""person-img"" src=""https://raw.githubusercontent.com/saramff/face-recognition-images/refs/heads/master//men/man_72.jpg"">
      <p class=""person-name"">Leon</p>
    ","","","",""
"null","","html-keyboard-response","147","2.0.0","195393","vxzz42lhv8jvxg5","true","21","weiblich","rechts","andere","","","null","","","","","","<div style=""font-size:60px;"">+</div>","fixation","","",""
"null","","html-keyboard-response","148","2.0.0","196404","vxzz42lhv8jvxg5","true","21","weiblich","rechts","andere","","","null","","","","","","
      <img class=""person-img"" src=""https://raw.githubusercontent.com/saramff/face-recognition-images/refs/heads/master//men/man_8.jpg"">
      <p class=""person-name"">Lukas</p>
    ","","","",""
"null","","html-keyboard-response","149","2.0.0","197422","vxzz42lhv8jvxg5","true","21","weiblich","rechts","andere","","","null","","","","","","<div style=""font-size:60px;"">+</div>","fixation","","",""
"null","","html-keyboard-response","150","2.0.0","198428","vxzz42lhv8jvxg5","true","21","weiblich","rechts","andere","","","null","","","","","","
      <img class=""person-img"" src=""https://raw.githubusercontent.com/saramff/face-recognition-images/refs/heads/master//men/man_34.jpg"">
      <p class=""person-name"">Viktor</p>
    ","","","",""
"null","","html-keyboard-response","151","2.0.0","199450","vxzz42lhv8jvxg5","true","21","weiblich","rechts","andere","","","null","","","","","","<div style=""font-size:60px;"">+</div>","fixation","","",""
"null","","html-keyboard-response","152","2.0.0","200463","vxzz42lhv8jvxg5","true","21","weiblich","rechts","andere","","","null","","","","","","
      <img class=""person-img"" src=""https://raw.githubusercontent.com/saramff/face-recognition-images/refs/heads/master//men/man_71.jpg"">
      <p class=""person-name"">Adrian</p>
    ","","","",""
"null","","html-keyboard-response","153","2.0.0","201482","vxzz42lhv8jvxg5","true","21","weiblich","rechts","andere","","","null","","","","","","<div style=""font-size:60px;"">+</div>","fixation","","",""
"null","","html-keyboard-response","154","2.0.0","202504","vxzz42lhv8jvxg5","true","21","weiblich","rechts","andere","","","null","","","","","","
      <img class=""person-img"" src=""https://raw.githubusercontent.com/saramff/face-recognition-images/refs/heads/master//women/woman_71.jpg"">
      <p class=""person-name"">Henni</p>
    ","","","",""
"null","","html-keyboard-response","155","2.0.0","203522","vxzz42lhv8jvxg5","true","21","weiblich","rechts","andere","","","null","","","","","","<div style=""font-size:60px;"">+</div>","fixation","","",""
"null","","html-keyboard-response","156","2.0.0","204532","vxzz42lhv8jvxg5","true","21","weiblich","rechts","andere","","","null","","","","","","
      <img class=""person-img"" src=""https://raw.githubusercontent.com/saramff/face-recognition-images/refs/heads/master//men/man_1.jpg"">
      <p class=""person-name"">Simon</p>
    ","","","",""
"null","","html-keyboard-response","157","2.0.0","205553","vxzz42lhv8jvxg5","true","21","weiblich","rechts","andere","","","null","","","","","","<div style=""font-size:60px;"">+</div>","fixation","","",""
"null","","html-keyboard-response","158","2.0.0","206573","vxzz42lhv8jvxg5","true","21","weiblich","rechts","andere","","","null","","","","","","
      <img class=""person-img"" src=""https://raw.githubusercontent.com/saramff/face-recognition-images/refs/heads/master//women/woman_95.jpg"">
      <p class=""person-name"">Yara</p>
    ","","","",""
"null","","html-keyboard-response","159","2.0.0","207593","vxzz42lhv8jvxg5","true","21","weiblich","rechts","andere","","","null","","","","","","<div style=""font-size:60px;"">+</div>","fixation","","",""
"null","","html-keyboard-response","160","2.0.0","208603","vxzz42lhv8jvxg5","true","21","weiblich","rechts","andere","","","null","","","","","","
      <img class=""person-img"" src=""https://raw.githubusercontent.com/saramff/face-recognition-images/refs/heads/master//men/man_57.jpg"">
      <p class=""person-name"">Rolf</p>
    ","","","",""
"null","","html-keyboard-response","161","2.0.0","209634","vxzz42lhv8jvxg5","true","21","weiblich","rechts","andere","","","null","","","","","","<div style=""font-size:60px;"">+</div>","fixation","","",""
"null","","html-keyboard-response","162","2.0.0","210643","vxzz42lhv8jvxg5","true","21","weiblich","rechts","andere","","","null","","","","","","
      <img class=""person-img"" src=""https://raw.githubusercontent.com/saramff/face-recognition-images/refs/heads/master//women/woman_85.jpg"">
      <p class=""person-name"">Ida</p>
    ","","","",""
"null","","html-keyboard-response","163","2.0.0","211653","vxzz42lhv8jvxg5","true","21","weiblich","rechts","andere","","","null","","","","","","<div style=""font-size:60px;"">+</div>","fixation","","",""
"null","","html-keyboard-response","164","2.0.0","212663","vxzz42lhv8jvxg5","true","21","weiblich","rechts","andere","","","null","","","","","","
      <img class=""person-img"" src=""https://raw.githubusercontent.com/saramff/face-recognition-images/refs/heads/master//women/woman_80.jpg"">
      <p class=""person-name"">Livia</p>
    ","","","",""
"null","","html-keyboard-response","165","2.0.0","213673","vxzz42lhv8jvxg5","true","21","weiblich","rechts","andere","","","null","","","","","","<div style=""font-size:60px;"">+</div>","fixation","","",""
"null","","html-keyboard-response","166","2.0.0","214684","vxzz42lhv8jvxg5","true","21","weiblich","rechts","andere","","","null","","","","","","
      <img class=""person-img"" src=""https://raw.githubusercontent.com/saramff/face-recognition-images/refs/heads/master//women/woman_87.jpg"">
      <p class=""person-name"">Maja</p>
    ","","","",""
"null","","html-keyboard-response","167","2.0.0","215712","vxzz42lhv8jvxg5","true","21","weiblich","rechts","andere","","","null","","","","","","<div style=""font-size:60px;"">+</div>","fixation","","",""
"null","","html-keyboard-response","168","2.0.0","216723","vxzz42lhv8jvxg5","true","21","weiblich","rechts","andere","","","null","","","","","","
      <img class=""person-img"" src=""https://raw.githubusercontent.com/saramff/face-recognition-images/refs/heads/master//women/woman_53.jpg"">
      <p class=""person-name"">Carolin</p>
    ","","","",""
"null","","html-keyboard-response","169","2.0.0","217733","vxzz42lhv8jvxg5","true","21","weiblich","rechts","andere","","","null","","","","","","<div style=""font-size:60px;"">+</div>","fixation","","",""
"null","","html-keyboard-response","170","2.0.0","218753","vxzz42lhv8jvxg5","true","21","weiblich","rechts","andere","","","null","","","","","","
      <img class=""person-img"" src=""https://raw.githubusercontent.com/saramff/face-recognition-images/refs/heads/master//men/man_44.jpg"">
      <p class=""person-name"">Gereon</p>
    ","","","",""
"null","","html-keyboard-response","171","2.0.0","219763","vxzz42lhv8jvxg5","true","21","weiblich","rechts","andere","","","null","","","","","","<div style=""font-size:60px;"">+</div>","fixation","","",""
"null","","html-keyboard-response","172","2.0.0","220773","vxzz42lhv8jvxg5","true","21","weiblich","rechts","andere","","","null","","","","","","
      <img class=""person-img"" src=""https://raw.githubusercontent.com/saramff/face-recognition-images/refs/heads/master//men/man_13.jpg"">
      <p class=""person-name"">Ben</p>
    ","","","",""
"null","","html-keyboard-response","173","2.0.0","221782","vxzz42lhv8jvxg5","true","21","weiblich","rechts","andere","","","null","","","","","","<div style=""font-size:60px;"">+</div>","fixation","","",""
"null","","html-keyboard-response","174","2.0.0","222803","vxzz42lhv8jvxg5","true","21","weiblich","rechts","andere","","","null","","","","","","
      <img class=""person-img"" src=""https://raw.githubusercontent.com/saramff/face-recognition-images/refs/heads/master//women/woman_82.jpg"">
      <p class=""person-name"">Nadine</p>
    ","","","",""
"null","","html-keyboard-response","175","2.0.0","223833","vxzz42lhv8jvxg5","true","21","weiblich","rechts","andere","","","null","","","","","","<div style=""font-size:60px;"">+</div>","fixation","","",""
"null","","html-keyboard-response","176","2.0.0","224852","vxzz42lhv8jvxg5","true","21","weiblich","rechts","andere","","","null","","","","","","
      <img class=""person-img"" src=""https://raw.githubusercontent.com/saramff/face-recognition-images/refs/heads/master//men/man_41.jpg"">
      <p class=""person-name"">Clemens</p>
    ","","","",""
"null","","html-keyboard-response","177","2.0.0","225872","vxzz42lhv8jvxg5","true","21","weiblich","rechts","andere","","","null","","","","","","<div style=""font-size:60px;"">+</div>","fixation","","",""
"null","","html-keyboard-response","178","2.0.0","226882","vxzz42lhv8jvxg5","true","21","weiblich","rechts","andere","","","null","","","","","","
      <img class=""person-img"" src=""https://raw.githubusercontent.com/saramff/face-recognition-images/refs/heads/master//women/woman_67.jpg"">
      <p class=""person-name"">Anouk</p>
    ","","","",""
"null","","html-keyboard-response","179","2.0.0","227902","vxzz42lhv8jvxg5","true","21","weiblich","rechts","andere","","","null","","","","","","<div style=""font-size:60px;"">+</div>","fixation","","",""
"null","","html-keyboard-response","180","2.0.0","228913","vxzz42lhv8jvxg5","true","21","weiblich","rechts","andere","","","null","","","","","","
      <img class=""person-img"" src=""https://raw.githubusercontent.com/saramff/face-recognition-images/refs/heads/master//women/woman_79.jpg"">
      <p class=""person-name"">Leila</p>
    ","","","",""
"null","","html-keyboard-response","181","2.0.0","229923","vxzz42lhv8jvxg5","true","21","weiblich","rechts","andere","","","null","","","","","","<div style=""font-size:60px;"">+</div>","fixation","","",""
"null","","html-keyboard-response","182","2.0.0","230942","vxzz42lhv8jvxg5","true","21","weiblich","rechts","andere","","","null","","","","","","
      <img class=""person-img"" src=""https://raw.githubusercontent.com/saramff/face-recognition-images/refs/heads/master//women/woman_43.jpg"">
      <p class=""person-name"">Marlene</p>
    ","","","",""
"null","","html-keyboard-response","183","2.0.0","231964","vxzz42lhv8jvxg5","true","21","weiblich","rechts","andere","","","null","","","","","","<div style=""font-size:60px;"">+</div>","fixation","","",""
"null","","html-keyboard-response","184","2.0.0","232975","vxzz42lhv8jvxg5","true","21","weiblich","rechts","andere","","","null","","","","","","
      <img class=""person-img"" src=""https://raw.githubusercontent.com/saramff/face-recognition-images/refs/heads/master//men/man_50.jpg"">
      <p class=""person-name"">Ralf</p>
    ","","","",""
"null","","html-keyboard-response","185","2.0.0","233992","vxzz42lhv8jvxg5","true","21","weiblich","rechts","andere","","","null","","","","","","<div style=""font-size:60px;"">+</div>","fixation","","",""
"null","","html-keyboard-response","186","2.0.0","235013","vxzz42lhv8jvxg5","true","21","weiblich","rechts","andere","","","null","","","","","","
      <img class=""person-img"" src=""https://raw.githubusercontent.com/saramff/face-recognition-images/refs/heads/master//women/woman_28.jpg"">
      <p class=""person-name"">Christina</p>
    ","","","",""
"null","","html-keyboard-response","187","2.0.0","236032","vxzz42lhv8jvxg5","true","21","weiblich","rechts","andere","","","null","","","","","","<div style=""font-size:60px;"">+</div>","fixation","","",""
"null","","html-keyboard-response","188","2.0.0","237043","vxzz42lhv8jvxg5","true","21","weiblich","rechts","andere","","","null","","","","","","
      <img class=""person-img"" src=""https://raw.githubusercontent.com/saramff/face-recognition-images/refs/heads/master//women/woman_86.jpg"">
      <p class=""person-name"">Fabienne</p>
    ","","","",""
"null","","html-keyboard-response","189","2.0.0","238051","vxzz42lhv8jvxg5","true","21","weiblich","rechts","andere","","","null","","","","","","<div style=""font-size:60px;"">+</div>","fixation","","",""
"null","","html-keyboard-response","190","2.0.0","239065","vxzz42lhv8jvxg5","true","21","weiblich","rechts","andere","","","null","","","","","","
      <img class=""person-img"" src=""https://raw.githubusercontent.com/saramff/face-recognition-images/refs/heads/master//men/man_46.jpg"">
      <p class=""person-name"">Manuel</p>
    ","","","",""
"null","","html-keyboard-response","191","2.0.0","240094","vxzz42lhv8jvxg5","true","21","weiblich","rechts","andere","","","null","","","","","","<div style=""font-size:60px;"">+</div>","fixation","","",""
"null","","html-keyboard-response","192","2.0.0","241114","vxzz42lhv8jvxg5","true","21","weiblich","rechts","andere","","","null","","","","","","
      <img class=""person-img"" src=""https://raw.githubusercontent.com/saramff/face-recognition-images/refs/heads/master//women/woman_81.jpg"">
      <p class=""person-name"">Leonie</p>
    ","","","",""
"null","","html-keyboard-response","193","2.0.0","242144","vxzz42lhv8jvxg5","true","21","weiblich","rechts","andere","","","null","","","","","","<div style=""font-size:60px;"">+</div>","fixation","","",""
"null","","html-keyboard-response","194","2.0.0","243163","vxzz42lhv8jvxg5","true","21","weiblich","rechts","andere","","","null","","","","","","
      <img class=""person-img"" src=""https://raw.githubusercontent.com/saramff/face-recognition-images/refs/heads/master//men/man_28.jpg"">
      <p class=""person-name"">Richard</p>
    ","","","",""
"null","","html-keyboard-response","195","2.0.0","244183","vxzz42lhv8jvxg5","true","21","weiblich","rechts","andere","","","null","","","","","","<div style=""font-size:60px;"">+</div>","fixation","","",""
"null","","html-keyboard-response","196","2.0.0","245193","vxzz42lhv8jvxg5","true","21","weiblich","rechts","andere","","","null","","","","","","
      <img class=""person-img"" src=""https://raw.githubusercontent.com/saramff/face-recognition-images/refs/heads/master//women/woman_7.jpg"">
      <p class=""person-name"">Pia</p>
    ","","","",""
"null","","html-keyboard-response","197","2.0.0","246213","vxzz42lhv8jvxg5","true","21","weiblich","rechts","andere","","","null","","","","","","<div style=""font-size:60px;"">+</div>","fixation","","",""
"null","","html-keyboard-response","198","2.0.0","247225","vxzz42lhv8jvxg5","true","21","weiblich","rechts","andere","","","null","","","","","","
      <img class=""person-img"" src=""https://raw.githubusercontent.com/saramff/face-recognition-images/refs/heads/master//men/man_76.jpg"">
      <p class=""person-name"">Johannes</p>
    ","","","",""
"null","","html-keyboard-response","199","2.0.0","248239","vxzz42lhv8jvxg5","true","21","weiblich","rechts","andere","","","null","","","","","","<div style=""font-size:60px;"">+</div>","fixation","","",""
"null","","html-keyboard-response","200","2.0.0","249243","vxzz42lhv8jvxg5","true","21","weiblich","rechts","andere","","","null","","","","","","
      <img class=""person-img"" src=""https://raw.githubusercontent.com/saramff/face-recognition-images/refs/heads/master//men/man_70.jpg"">
      <p class=""person-name"">Friedrich</p>
    ","","","",""
"null","","html-keyboard-response","201","2.0.0","250272","vxzz42lhv8jvxg5","true","21","weiblich","rechts","andere","","","null","","","","","","<div style=""font-size:60px;"">+</div>","fixation","","",""
"null","","html-keyboard-response","202","2.0.0","251283","vxzz42lhv8jvxg5","true","21","weiblich","rechts","andere","","","null","","","","","","
      <img class=""person-img"" src=""https://raw.githubusercontent.com/saramff/face-recognition-images/refs/heads/master//men/man_91.jpg"">
      <p class=""person-name"">Fabian</p>
    ","","","",""
"null","","html-keyboard-response","203","2.0.0","252293","vxzz42lhv8jvxg5","true","21","weiblich","rechts","andere","","","null","","","","","","<div style=""font-size:60px;"">+</div>","fixation","","",""
"null","","html-keyboard-response","204","2.0.0","253312","vxzz42lhv8jvxg5","true","21","weiblich","rechts","andere","","","null","","","","","","
      <img class=""person-img"" src=""https://raw.githubusercontent.com/saramff/face-recognition-images/refs/heads/master//women/woman_5.jpg"">
      <p class=""person-name"">Emma</p>
    ","","","",""
"null","","html-keyboard-response","205","2.0.0","254333","vxzz42lhv8jvxg5","true","21","weiblich","rechts","andere","","","null","","","","","","<div style=""font-size:60px;"">+</div>","fixation","","",""
"null","","html-keyboard-response","206","2.0.0","255352","vxzz42lhv8jvxg5","true","21","weiblich","rechts","andere","","","null","","","","","","
      <img class=""person-img"" src=""https://raw.githubusercontent.com/saramff/face-recognition-images/refs/heads/master//women/woman_12.jpg"">
      <p class=""person-name"">Kerstin</p>
    ","","","",""
"null","","html-keyboard-response","207","2.0.0","256373","vxzz42lhv8jvxg5","true","21","weiblich","rechts","andere","","","null","","","","","","<div style=""font-size:60px;"">+</div>","fixation","","",""
"null","","html-keyboard-response","208","2.0.0","257383","vxzz42lhv8jvxg5","true","21","weiblich","rechts","andere","","","null","","","","","","
      <img class=""person-img"" src=""https://raw.githubusercontent.com/saramff/face-recognition-images/refs/heads/master//men/man_66.jpg"">
      <p class=""person-name"">Sebastian</p>
    ","","","",""
"null","","html-keyboard-response","209","2.0.0","258407","vxzz42lhv8jvxg5","true","21","weiblich","rechts","andere","","","null","","","","","","<div style=""font-size:60px;"">+</div>","fixation","","",""
"null","","html-keyboard-response","210","2.0.0","259422","vxzz42lhv8jvxg5","true","21","weiblich","rechts","andere","","","null","","","","","","
      <img class=""person-img"" src=""https://raw.githubusercontent.com/saramff/face-recognition-images/refs/heads/master//women/woman_34.jpg"">
      <p class=""person-name"">Johanna</p>
    ","","","",""
"null","","html-keyboard-response","211","2.0.0","260443","vxzz42lhv8jvxg5","true","21","weiblich","rechts","andere","","","null","","","","","","<div style=""font-size:60px;"">+</div>","fixation","","",""
"null","","html-keyboard-response","212","2.0.0","261463","vxzz42lhv8jvxg5","true","21","weiblich","rechts","andere","","","null","","","","","","
      <img class=""person-img"" src=""https://raw.githubusercontent.com/saramff/face-recognition-images/refs/heads/master//men/man_22.jpg"">
      <p class=""person-name"">Philipp</p>
    ","","","",""
"null","","html-keyboard-response","213","2.0.0","262493","vxzz42lhv8jvxg5","true","21","weiblich","rechts","andere","","","null","","","","","","<div style=""font-size:60px;"">+</div>","fixation","","",""
"null","","html-keyboard-response","214","2.0.0","263511","vxzz42lhv8jvxg5","true","21","weiblich","rechts","andere","","","null","","","","","","
      <img class=""person-img"" src=""https://raw.githubusercontent.com/saramff/face-recognition-images/refs/heads/master//men/man_35.jpg"">
      <p class=""person-name"">Volker</p>
    ","","","",""
"null","","html-keyboard-response","215","2.0.0","264522","vxzz42lhv8jvxg5","true","21","weiblich","rechts","andere","","","null","","","","","","<div style=""font-size:60px;"">+</div>","fixation","","",""
"null","","html-keyboard-response","216","2.0.0","265537","vxzz42lhv8jvxg5","true","21","weiblich","rechts","andere","","","null","","","","","","
      <img class=""person-img"" src=""https://raw.githubusercontent.com/saramff/face-recognition-images/refs/heads/master//men/man_64.jpg"">
      <p class=""person-name"">Frank</p>
    ","","","",""
"null","","html-keyboard-response","217","2.0.0","266552","vxzz42lhv8jvxg5","true","21","weiblich","rechts","andere","","","null","","","","","","<div style=""font-size:60px;"">+</div>","fixation","","",""
"null","","html-keyboard-response","218","2.0.0","267569","vxzz42lhv8jvxg5","true","21","weiblich","rechts","andere","","","null","","","","","","
      <img class=""person-img"" src=""https://raw.githubusercontent.com/saramff/face-recognition-images/refs/heads/master//women/woman_20.jpg"">
      <p class=""person-name"">Claudia</p>
    ","","","",""
"null","","html-keyboard-response","219","2.0.0","268584","vxzz42lhv8jvxg5","true","21","weiblich","rechts","andere","","","null","","","","","","<div style=""font-size:60px;"">+</div>","fixation","","",""
"null","","html-keyboard-response","220","2.0.0","269597","vxzz42lhv8jvxg5","true","21","weiblich","rechts","andere","","","null","","","","","","
      <img class=""person-img"" src=""https://raw.githubusercontent.com/saramff/face-recognition-images/refs/heads/master//men/man_93.jpg"">
      <p class=""person-name"">Heiko</p>
    ","","","",""
"null","","html-keyboard-response","221","2.0.0","270613","vxzz42lhv8jvxg5","true","21","weiblich","rechts","andere","","","null","","","","","","<div style=""font-size:60px;"">+</div>","fixation","","",""
"null","","html-keyboard-response","222","2.0.0","271623","vxzz42lhv8jvxg5","true","21","weiblich","rechts","andere","","","null","","","","","","
      <img class=""person-img"" src=""https://raw.githubusercontent.com/saramff/face-recognition-images/refs/heads/master//women/woman_31.jpg"">
      <p class=""person-name"">Antonia</p>
    ","","","",""
"null","","html-keyboard-response","223","2.0.0","272643","vxzz42lhv8jvxg5","true","21","weiblich","rechts","andere","","","null","","","","","","<div style=""font-size:60px;"">+</div>","fixation","","",""
"null","","html-keyboard-response","224","2.0.0","273653","vxzz42lhv8jvxg5","true","21","weiblich","rechts","andere","","","null","","","","","","
      <img class=""person-img"" src=""https://raw.githubusercontent.com/saramff/face-recognition-images/refs/heads/master//men/man_42.jpg"">
      <p class=""person-name"">Paul</p>
    ","","","",""
"null","","html-keyboard-response","225","2.0.0","274682","vxzz42lhv8jvxg5","true","21","weiblich","rechts","andere","","","null","","","","","","<div style=""font-size:60px;"">+</div>","fixation","","",""
"null","","html-keyboard-response","226","2.0.0","275693","vxzz42lhv8jvxg5","true","21","weiblich","rechts","andere","","","null","","","","","","
      <img class=""person-img"" src=""https://raw.githubusercontent.com/saramff/face-recognition-images/refs/heads/master//men/man_79.jpg"">
      <p class=""person-name"">Frederik</p>
    ","","","",""
"null","","html-keyboard-response","227","2.0.0","276722","vxzz42lhv8jvxg5","true","21","weiblich","rechts","andere","","","null","","","","","","<div style=""font-size:60px;"">+</div>","fixation","","",""
"null","","html-keyboard-response","228","2.0.0","277733","vxzz42lhv8jvxg5","true","21","weiblich","rechts","andere","","","null","","","","","","
      <img class=""person-img"" src=""https://raw.githubusercontent.com/saramff/face-recognition-images/refs/heads/master//women/woman_38.jpg"">
      <p class=""person-name"">Lea</p>
    ","","","",""
"null","","html-keyboard-response","229","2.0.0","278752","vxzz42lhv8jvxg5","true","21","weiblich","rechts","andere","","","null","","","","","","<div style=""font-size:60px;"">+</div>","fixation","","",""
"null","","html-keyboard-response","230","2.0.0","279763","vxzz42lhv8jvxg5","true","21","weiblich","rechts","andere","","","null","","","","","","
      <img class=""person-img"" src=""https://raw.githubusercontent.com/saramff/face-recognition-images/refs/heads/master//women/woman_22.jpg"">
      <p class=""person-name"">Amira</p>
    ","","","",""
"null","","html-keyboard-response","231","2.0.0","280773","vxzz42lhv8jvxg5","true","21","weiblich","rechts","andere","","","null","","","","","","<div style=""font-size:60px;"">+</div>","fixation","","",""
"null","","html-keyboard-response","232","2.0.0","281782","vxzz42lhv8jvxg5","true","21","weiblich","rechts","andere","","","null","","","","","","
      <img class=""person-img"" src=""https://raw.githubusercontent.com/saramff/face-recognition-images/refs/heads/master//women/woman_58.jpg"">
      <p class=""person-name"">Marie</p>
    ","","","",""
"null","","html-keyboard-response","233","2.0.0","282803","vxzz42lhv8jvxg5","true","21","weiblich","rechts","andere","","","null","","","","","","<div style=""font-size:60px;"">+</div>","fixation","","",""
"null","","html-keyboard-response","234","2.0.0","283812","vxzz42lhv8jvxg5","true","21","weiblich","rechts","andere","","","null","","","","","","
      <img class=""person-img"" src=""https://raw.githubusercontent.com/saramff/face-recognition-images/refs/heads/master//men/man_82.jpg"">
      <p class=""person-name"">Paul</p>
    ","","","",""
"null","","html-keyboard-response","235","2.0.0","284823","vxzz42lhv8jvxg5","true","21","weiblich","rechts","andere","","","null","","","","","","<div style=""font-size:60px;"">+</div>","fixation","","",""
"null","","html-keyboard-response","236","2.0.0","285833","vxzz42lhv8jvxg5","true","21","weiblich","rechts","andere","","","null","","","","","","
      <img class=""person-img"" src=""https://raw.githubusercontent.com/saramff/face-recognition-images/refs/heads/master//men/man_81.jpg"">
      <p class=""person-name"">Robert</p>
    ","","","",""
"null","","html-keyboard-response","237","2.0.0","286843","vxzz42lhv8jvxg5","true","21","weiblich","rechts","andere","","","null","","","","","","<div style=""font-size:60px;"">+</div>","fixation","","",""
"null","","html-keyboard-response","238","2.0.0","287862","vxzz42lhv8jvxg5","true","21","weiblich","rechts","andere","","","null","","","","","","
      <img class=""person-img"" src=""https://raw.githubusercontent.com/saramff/face-recognition-images/refs/heads/master//men/man_11.jpg"">
      <p class=""person-name"">Ingo</p>
    ","","","",""
"null","","html-keyboard-response","239","2.0.0","288883","vxzz42lhv8jvxg5","true","21","weiblich","rechts","andere","","","null","","","","","","<div style=""font-size:60px;"">+</div>","fixation","","",""
"null","","html-keyboard-response","240","2.0.0","289904","vxzz42lhv8jvxg5","true","21","weiblich","rechts","andere","","","null","","","","","","
      <img class=""person-img"" src=""https://raw.githubusercontent.com/saramff/face-recognition-images/refs/heads/master//women/woman_70.jpg"">
      <p class=""person-name"">Annika</p>
    ","","","",""
"null","","html-keyboard-response","241","2.0.0","290933","vxzz42lhv8jvxg5","true","21","weiblich","rechts","andere","","","null","","","","","","<div style=""font-size:60px;"">+</div>","fixation","","",""
"null","","html-keyboard-response","242","2.0.0","291953","vxzz42lhv8jvxg5","true","21","weiblich","rechts","andere","","","null","","","","","","
      <img class=""person-img"" src=""https://raw.githubusercontent.com/saramff/face-recognition-images/refs/heads/master//men/man_53.jpg"">
      <p class=""person-name"">Jens</p>
    ","","","",""
"null","","html-keyboard-response","243","2.0.0","292973","vxzz42lhv8jvxg5","true","21","weiblich","rechts","andere","","","null","","","","","","<div style=""font-size:60px;"">+</div>","fixation","","",""
"null","","html-keyboard-response","244","2.0.0","293994","vxzz42lhv8jvxg5","true","21","weiblich","rechts","andere","","","null","","","","","","
      <img class=""person-img"" src=""https://raw.githubusercontent.com/saramff/face-recognition-images/refs/heads/master//men/man_30.jpg"">
      <p class=""person-name"">Ruben</p>
    ","","","",""
"null","","html-keyboard-response","245","2.0.0","295012","vxzz42lhv8jvxg5","true","21","weiblich","rechts","andere","","","null","","","","","","<div style=""font-size:60px;"">+</div>","fixation","","",""
"null","","html-keyboard-response","246","2.0.0","296023","vxzz42lhv8jvxg5","true","21","weiblich","rechts","andere","","","null","","","","","","
      <img class=""person-img"" src=""https://raw.githubusercontent.com/saramff/face-recognition-images/refs/heads/master//women/woman_83.jpg"">
      <p class=""person-name"">Zoe</p>
    ","","","",""
"null","","html-keyboard-response","247","2.0.0","297043","vxzz42lhv8jvxg5","true","21","weiblich","rechts","andere","","","null","","","","","","<div style=""font-size:60px;"">+</div>","fixation","","",""
"null","","html-keyboard-response","248","2.0.0","298063","vxzz42lhv8jvxg5","true","21","weiblich","rechts","andere","","","null","","","","","","
      <img class=""person-img"" src=""https://raw.githubusercontent.com/saramff/face-recognition-images/refs/heads/master//women/woman_88.jpg"">
      <p class=""person-name"">Veronika</p>
    ","","","",""
"null","","html-keyboard-response","249","2.0.0","299083","vxzz42lhv8jvxg5","true","21","weiblich","rechts","andere","","","null","","","","","","<div style=""font-size:60px;"">+</div>","fixation","","",""
"null","","html-keyboard-response","250","2.0.0","300092","vxzz42lhv8jvxg5","true","21","weiblich","rechts","andere","","","null","","","","","","
      <img class=""person-img"" src=""https://raw.githubusercontent.com/saramff/face-recognition-images/refs/heads/master//women/woman_75.jpg"">
      <p class=""person-name"">Verena</p>
    ","","","",""
"null","","html-keyboard-response","251","2.0.0","301113","vxzz42lhv8jvxg5","true","21","weiblich","rechts","andere","","","null","","","","","","<div style=""font-size:60px;"">+</div>","fixation","","",""
"null","","html-keyboard-response","252","2.0.0","302122","vxzz42lhv8jvxg5","true","21","weiblich","rechts","andere","","","null","","","","","","
      <img class=""person-img"" src=""https://raw.githubusercontent.com/saramff/face-recognition-images/refs/heads/master//men/man_52.jpg"">
      <p class=""person-name"">Artur</p>
    ","","","",""
"null","","html-keyboard-response","253","2.0.0","303133","vxzz42lhv8jvxg5","true","21","weiblich","rechts","andere","","","null","","","","","","<div style=""font-size:60px;"">+</div>","fixation","","",""
"null","","html-keyboard-response","254","2.0.0","304137","vxzz42lhv8jvxg5","true","21","weiblich","rechts","andere","","","null","","","","","","
      <img class=""person-img"" src=""https://raw.githubusercontent.com/saramff/face-recognition-images/refs/heads/master//men/man_59.jpg"">
      <p class=""person-name"">Raphael</p>
    ","","","",""
"null","","html-keyboard-response","255","2.0.0","305153","vxzz42lhv8jvxg5","true","21","weiblich","rechts","andere","","","null","","","","","","<div style=""font-size:60px;"">+</div>","fixation","","",""
"null","","html-keyboard-response","256","2.0.0","306164","vxzz42lhv8jvxg5","true","21","weiblich","rechts","andere","","","null","","","","","","
      <img class=""person-img"" src=""https://raw.githubusercontent.com/saramff/face-recognition-images/refs/heads/master//men/man_31.jpg"">
      <p class=""person-name"">Tristan</p>
    ","","","",""
"null","","html-keyboard-response","257","2.0.0","307195","vxzz42lhv8jvxg5","true","21","weiblich","rechts","andere","","","null","","","","","","<div style=""font-size:60px;"">+</div>","fixation","","",""
"null","","html-keyboard-response","258","2.0.0","308203","vxzz42lhv8jvxg5","true","21","weiblich","rechts","andere","","","null","","","","","","
      <img class=""person-img"" src=""https://raw.githubusercontent.com/saramff/face-recognition-images/refs/heads/master//women/woman_40.jpg"">
      <p class=""person-name"">Marla</p>
    ","","","",""
"null","","html-keyboard-response","259","2.0.0","309222","vxzz42lhv8jvxg5","true","21","weiblich","rechts","andere","","","null","","","","","","<div style=""font-size:60px;"">+</div>","fixation","","",""
"null","","html-keyboard-response","260","2.0.0","310232","vxzz42lhv8jvxg5","true","21","weiblich","rechts","andere","","","null","","","","","","
      <img class=""person-img"" src=""https://raw.githubusercontent.com/saramff/face-recognition-images/refs/heads/master//women/woman_74.jpg"">
      <p class=""person-name"">Neele</p>
    ","","","",""
"null","","html-keyboard-response","261","2.0.0","311254","vxzz42lhv8jvxg5","true","21","weiblich","rechts","andere","","","null","","","","","","<div style=""font-size:60px;"">+</div>","fixation","","",""
"null","","html-keyboard-response","262","2.0.0","312262","vxzz42lhv8jvxg5","true","21","weiblich","rechts","andere","","","null","","","","","","
      <img class=""person-img"" src=""https://raw.githubusercontent.com/saramff/face-recognition-images/refs/heads/master//men/man_51.jpg"">
      <p class=""person-name"">Elias</p>
    ","","","",""
"null","","html-keyboard-response","263","2.0.0","313284","vxzz42lhv8jvxg5","true","21","weiblich","rechts","andere","","","null","","","","","","<div style=""font-size:60px;"">+</div>","fixation","","",""
"null","","html-keyboard-response","264","2.0.0","314293","vxzz42lhv8jvxg5","true","21","weiblich","rechts","andere","","","null","","","","","","
      <img class=""person-img"" src=""https://raw.githubusercontent.com/saramff/face-recognition-images/refs/heads/master//men/man_45.jpg"">
      <p class=""person-name"">Konstantin</p>
    ","","","",""
"null","","html-keyboard-response","265","2.0.0","315313","vxzz42lhv8jvxg5","true","21","weiblich","rechts","andere","","","null","","","","","","<div style=""font-size:60px;"">+</div>","fixation","","",""
"null","","html-keyboard-response","266","2.0.0","316333","vxzz42lhv8jvxg5","true","21","weiblich","rechts","andere","","","null","","","","","","
      <img class=""person-img"" src=""https://raw.githubusercontent.com/saramff/face-recognition-images/refs/heads/master//women/woman_64.jpg"">
      <p class=""person-name"">Malou</p>
    ","","","",""
"null","","html-keyboard-response","267","2.0.0","317363","vxzz42lhv8jvxg5","true","21","weiblich","rechts","andere","","","null","","","","","","<div style=""font-size:60px;"">+</div>","fixation","","",""
"null","","html-keyboard-response","268","2.0.0","318382","vxzz42lhv8jvxg5","true","21","weiblich","rechts","andere","","","null","","","","","","
      <img class=""person-img"" src=""https://raw.githubusercontent.com/saramff/face-recognition-images/refs/heads/master//women/woman_6.jpg"">
      <p class=""person-name"">Freya</p>
    ","","","",""
"null","","html-keyboard-response","269","2.0.0","319413","vxzz42lhv8jvxg5","true","21","weiblich","rechts","andere","","","null","","","","","","<div style=""font-size:60px;"">+</div>","fixation","","",""
"null","","html-keyboard-response","270","2.0.0","320421","vxzz42lhv8jvxg5","true","21","weiblich","rechts","andere","","","null","","","","","","
      <img class=""person-img"" src=""https://raw.githubusercontent.com/saramff/face-recognition-images/refs/heads/master//women/woman_56.jpg"">
      <p class=""person-name"">Isabel</p>
    ","","","",""
"null","","html-keyboard-response","271","2.0.0","321433","vxzz42lhv8jvxg5","true","21","weiblich","rechts","andere","","","null","","","","","","<div style=""font-size:60px;"">+</div>","fixation","","",""
"null","","html-keyboard-response","272","2.0.0","322444","vxzz42lhv8jvxg5","true","21","weiblich","rechts","andere","","","null","","","","","","
      <img class=""person-img"" src=""https://raw.githubusercontent.com/saramff/face-recognition-images/refs/heads/master//women/woman_35.jpg"">
      <p class=""person-name"">Louisa</p>
    ","","","",""
"null","","html-keyboard-response","273","2.0.0","323464","vxzz42lhv8jvxg5","true","21","weiblich","rechts","andere","","","null","","","","","","<div style=""font-size:60px;"">+</div>","fixation","","",""
"null","","html-keyboard-response","274","2.0.0","324473","vxzz42lhv8jvxg5","true","21","weiblich","rechts","andere","","","null","","","","","","
      <img class=""person-img"" src=""https://raw.githubusercontent.com/saramff/face-recognition-images/refs/heads/master//men/man_90.jpg"">
      <p class=""person-name"">Joel</p>
    ","","","",""
"null","","html-keyboard-response","275","2.0.0","325536","vxzz42lhv8jvxg5","true","21","weiblich","rechts","andere","","","null","","","","","","<div style=""font-size:60px;"">+</div>","fixation","","",""
"null","","html-keyboard-response","276","2.0.0","326543","vxzz42lhv8jvxg5","true","21","weiblich","rechts","andere","","","null","","","","","","
      <img class=""person-img"" src=""https://raw.githubusercontent.com/saramff/face-recognition-images/refs/heads/master//men/man_84.jpg"">
      <p class=""person-name"">Martin</p>
    ","","","",""
"null","","html-keyboard-response","277","2.0.0","327564","vxzz42lhv8jvxg5","true","21","weiblich","rechts","andere","","","null","","","","","","<div style=""font-size:60px;"">+</div>","fixation","","",""
"null","","html-keyboard-response","278","2.0.0","328582","vxzz42lhv8jvxg5","true","21","weiblich","rechts","andere","","","null","","","","","","
      <img class=""person-img"" src=""https://raw.githubusercontent.com/saramff/face-recognition-images/refs/heads/master//women/woman_45.jpg"">
      <p class=""person-name"">Tabea</p>
    ","","","",""
"null","","html-keyboard-response","279","2.0.0","329603","vxzz42lhv8jvxg5","true","21","weiblich","rechts","andere","","","null","","","","","","<div style=""font-size:60px;"">+</div>","fixation","","",""
"null","","html-keyboard-response","280","2.0.0","330625","vxzz42lhv8jvxg5","true","21","weiblich","rechts","andere","","","null","","","","","","
      <img class=""person-img"" src=""https://raw.githubusercontent.com/saramff/face-recognition-images/refs/heads/master//women/woman_4.jpg"">
      <p class=""person-name"">Stella</p>
    ","","","",""
"null","","html-keyboard-response","281","2.0.0","331663","vxzz42lhv8jvxg5","true","21","weiblich","rechts","andere","","","null","","","","","","<div style=""font-size:60px;"">+</div>","fixation","","",""
"null","","html-keyboard-response","282","2.0.0","332674","vxzz42lhv8jvxg5","true","21","weiblich","rechts","andere","","","null","","","","","","
      <img class=""person-img"" src=""https://raw.githubusercontent.com/saramff/face-recognition-images/refs/heads/master//women/woman_25.jpg"">
      <p class=""person-name"">Ayla</p>
    ","","","",""
"null","","html-keyboard-response","283","2.0.0","333693","vxzz42lhv8jvxg5","true","21","weiblich","rechts","andere","","","null","","","","","","<div style=""font-size:60px;"">+</div>","fixation","","",""
"null","","html-keyboard-response","284","2.0.0","334703","vxzz42lhv8jvxg5","true","21","weiblich","rechts","andere","","","null","","","","","","
      <img class=""person-img"" src=""https://raw.githubusercontent.com/saramff/face-recognition-images/refs/heads/master//men/man_26.jpg"">
      <p class=""person-name"">Christoph</p>
    ","","","",""
"null","","html-keyboard-response","285","2.0.0","335722","vxzz42lhv8jvxg5","true","21","weiblich","rechts","andere","","","null","","","","","","<div style=""font-size:60px;"">+</div>","fixation","","",""
"null","","html-keyboard-response","286","2.0.0","336733","vxzz42lhv8jvxg5","true","21","weiblich","rechts","andere","","","null","","","","","","
      <img class=""person-img"" src=""https://raw.githubusercontent.com/saramff/face-recognition-images/refs/heads/master//men/man_21.jpg"">
      <p class=""person-name"">Axel</p>
    ","","","",""
"null","","html-keyboard-response","287","2.0.0","337753","vxzz42lhv8jvxg5","true","21","weiblich","rechts","andere","","","null","","","","","","<div style=""font-size:60px;"">+</div>","fixation","","",""
"null","","html-keyboard-response","288","2.0.0","338763","vxzz42lhv8jvxg5","true","21","weiblich","rechts","andere","","","null","","","","","","
      <img class=""person-img"" src=""https://raw.githubusercontent.com/saramff/face-recognition-images/refs/heads/master//women/woman_16.jpg"">
      <p class=""person-name"">Lotte</p>
    ","","","",""
"null","","html-keyboard-response","289","2.0.0","339773","vxzz42lhv8jvxg5","true","21","weiblich","rechts","andere","","","null","","","","","","<div style=""font-size:60px;"">+</div>","fixation","","",""
"null","","html-keyboard-response","290","2.0.0","340783","vxzz42lhv8jvxg5","true","21","weiblich","rechts","andere","","","null","","","","","","
      <img class=""person-img"" src=""https://raw.githubusercontent.com/saramff/face-recognition-images/refs/heads/master//men/man_23.jpg"">
      <p class=""person-name"">David</p>
    ","","","",""
"null","","html-keyboard-response","291","2.0.0","341793","vxzz42lhv8jvxg5","true","21","weiblich","rechts","andere","","","null","","","","","","<div style=""font-size:60px;"">+</div>","fixation","","",""
"null","","html-keyboard-response","292","2.0.0","342803","vxzz42lhv8jvxg5","true","21","weiblich","rechts","andere","","","null","","","","","","
      <img class=""person-img"" src=""https://raw.githubusercontent.com/saramff/face-recognition-images/refs/heads/master//women/woman_29.jpg"">
      <p class=""person-name"">Sabrina</p>
    ","","","",""
"null","","html-keyboard-response","293","2.0.0","343829","vxzz42lhv8jvxg5","true","21","weiblich","rechts","andere","","","null","","","","","","<div style=""font-size:60px;"">+</div>","fixation","","",""
"null","","html-keyboard-response","294","2.0.0","344842","vxzz42lhv8jvxg5","true","21","weiblich","rechts","andere","","","null","","","","","","
      <img class=""person-img"" src=""https://raw.githubusercontent.com/saramff/face-recognition-images/refs/heads/master//women/woman_23.jpg"">
      <p class=""person-name"">Franziska</p>
    ","","","",""
"null","","html-keyboard-response","295","2.0.0","345873","vxzz42lhv8jvxg5","true","21","weiblich","rechts","andere","","","null","","","","","","<div style=""font-size:60px;"">+</div>","fixation","","",""
"null","","html-keyboard-response","296","2.0.0","346893","vxzz42lhv8jvxg5","true","21","weiblich","rechts","andere","","","null","","","","","","
      <img class=""person-img"" src=""https://raw.githubusercontent.com/saramff/face-recognition-images/refs/heads/master//women/woman_65.jpg"">
      <p class=""person-name"">Carla</p>
    ","","","",""
"null","","html-keyboard-response","297","2.0.0","347913","vxzz42lhv8jvxg5","true","21","weiblich","rechts","andere","","","null","","","","","","<div style=""font-size:60px;"">+</div>","fixation","","",""
"null","","html-keyboard-response","298","2.0.0","348922","vxzz42lhv8jvxg5","true","21","weiblich","rechts","andere","","","null","","","","","","
      <img class=""person-img"" src=""https://raw.githubusercontent.com/saramff/face-recognition-images/refs/heads/master//women/woman_66.jpg"">
      <p class=""person-name"">Beate</p>
    ","","","",""
"null","","html-keyboard-response","299","2.0.0","349942","vxzz42lhv8jvxg5","true","21","weiblich","rechts","andere","","","null","","","","","","<div style=""font-size:60px;"">+</div>","fixation","","",""
"null","","html-keyboard-response","300","2.0.0","350953","vxzz42lhv8jvxg5","true","21","weiblich","rechts","andere","","","null","","","","","","
      <img class=""person-img"" src=""https://raw.githubusercontent.com/saramff/face-recognition-images/refs/heads/master//women/woman_92.jpg"">
      <p class=""person-name"">Annalena</p>
    ","","","",""
"null","","html-keyboard-response","301","2.0.0","351973","vxzz42lhv8jvxg5","true","21","weiblich","rechts","andere","","","null","","","","","","<div style=""font-size:60px;"">+</div>","fixation","","",""
"null","","html-keyboard-response","302","2.0.0","352985","vxzz42lhv8jvxg5","true","21","weiblich","rechts","andere","","","null","","","","","","
      <img class=""person-img"" src=""https://raw.githubusercontent.com/saramff/face-recognition-images/refs/heads/master//women/woman_36.jpg"">
      <p class=""person-name"">Karlotta</p>
    ","","","",""
"null","","html-keyboard-response","303","2.0.0","354004","vxzz42lhv8jvxg5","true","21","weiblich","rechts","andere","","","null","","","","","","<div style=""font-size:60px;"">+</div>","fixation","","",""
"null","","html-keyboard-response","304","2.0.0","355013","vxzz42lhv8jvxg5","true","21","weiblich","rechts","andere","","","null","","","","","","
      <img class=""person-img"" src=""https://raw.githubusercontent.com/saramff/face-recognition-images/refs/heads/master//men/man_88.jpg"">
      <p class=""person-name"">Markus</p>
    ","","","",""
"null","","html-keyboard-response","305","2.0.0","356033","vxzz42lhv8jvxg5","true","21","weiblich","rechts","andere","","","null","","","","","","<div style=""font-size:60px;"">+</div>","fixation","","",""
"null","","html-keyboard-response","306","2.0.0","357046","vxzz42lhv8jvxg5","true","21","weiblich","rechts","andere","","","null","","","","","","
      <img class=""person-img"" src=""https://raw.githubusercontent.com/saramff/face-recognition-images/refs/heads/master//women/woman_49.jpg"">
      <p class=""person-name"">Svenja</p>
    ","","","",""
"null","","html-keyboard-response","307","2.0.0","358062","vxzz42lhv8jvxg5","true","21","weiblich","rechts","andere","","","null","","","","","","<div style=""font-size:60px;"">+</div>","fixation","","",""
"null","","html-keyboard-response","308","2.0.0","359072","vxzz42lhv8jvxg5","true","21","weiblich","rechts","andere","","","null","","","","","","
      <img class=""person-img"" src=""https://raw.githubusercontent.com/saramff/face-recognition-images/refs/heads/master//men/man_19.jpg"">
      <p class=""person-name"">Holger</p>
    ","","","",""
"null","","html-keyboard-response","309","2.0.0","360093","vxzz42lhv8jvxg5","true","21","weiblich","rechts","andere","","","null","","","","","","<div style=""font-size:60px;"">+</div>","fixation","","",""
"null","","html-keyboard-response","310","2.0.0","361103","vxzz42lhv8jvxg5","true","21","weiblich","rechts","andere","","","null","","","","","","
      <img class=""person-img"" src=""https://raw.githubusercontent.com/saramff/face-recognition-images/refs/heads/master//men/man_61.jpg"">
      <p class=""person-name"">Guido</p>
    ","","","",""
"null","","html-keyboard-response","311","2.0.0","362121","vxzz42lhv8jvxg5","true","21","weiblich","rechts","andere","","","null","","","","","","<div style=""font-size:60px;"">+</div>","fixation","","",""
"null","","html-keyboard-response","312","2.0.0","363133","vxzz42lhv8jvxg5","true","21","weiblich","rechts","andere","","","null","","","","","","
      <img class=""person-img"" src=""https://raw.githubusercontent.com/saramff/face-recognition-images/refs/heads/master//women/woman_3.jpg"">
      <p class=""person-name"">Helena</p>
    ","","","",""
"null","","html-keyboard-response","313","2.0.0","364153","vxzz42lhv8jvxg5","true","21","weiblich","rechts","andere","","","null","","","","","","<div style=""font-size:60px;"">+</div>","fixation","","",""
"null","","html-keyboard-response","314","2.0.0","365163","vxzz42lhv8jvxg5","true","21","weiblich","rechts","andere","","","null","","","","","","
      <img class=""person-img"" src=""https://raw.githubusercontent.com/saramff/face-recognition-images/refs/heads/master//women/woman_37.jpg"">
      <p class=""person-name"">Theresa</p>
    ","","","",""
"null","","html-keyboard-response","315","2.0.0","366173","vxzz42lhv8jvxg5","true","21","weiblich","rechts","andere","","","null","","","","","","<div style=""font-size:60px;"">+</div>","fixation","","",""
"null","","html-keyboard-response","316","2.0.0","367184","vxzz42lhv8jvxg5","true","21","weiblich","rechts","andere","","","null","","","","","","
      <img class=""person-img"" src=""https://raw.githubusercontent.com/saramff/face-recognition-images/refs/heads/master//men/man_83.jpg"">
      <p class=""person-name"">Bj&ouml;rn</p>
    ","","","",""
"null","","html-keyboard-response","317","2.0.0","368213","vxzz42lhv8jvxg5","true","21","weiblich","rechts","andere","","","null","","","","","","<div style=""font-size:60px;"">+</div>","fixation","","",""
"null","","html-keyboard-response","318","2.0.0","369233","vxzz42lhv8jvxg5","true","21","weiblich","rechts","andere","","","null","","","","","","
      <img class=""person-img"" src=""https://raw.githubusercontent.com/saramff/face-recognition-images/refs/heads/master//women/woman_15.jpg"">
      <p class=""person-name"">Fiona</p>
    ","","","",""
"null","","html-keyboard-response","319","2.0.0","370253","vxzz42lhv8jvxg5","true","21","weiblich","rechts","andere","","","null","","","","","","<div style=""font-size:60px;"">+</div>","fixation","","",""
"null","","html-keyboard-response","320","2.0.0","371261","vxzz42lhv8jvxg5","true","21","weiblich","rechts","andere","","","null","","","","","","
      <img class=""person-img"" src=""https://raw.githubusercontent.com/saramff/face-recognition-images/refs/heads/master//men/man_24.jpg"">
      <p class=""person-name"">Ren&eacute;</p>
    ","","","",""
"null","","html-keyboard-response","321","2.0.0","372283","vxzz42lhv8jvxg5","true","21","weiblich","rechts","andere","","","null","","","","","","<div style=""font-size:60px;"">+</div>","fixation","","",""
"null","","html-keyboard-response","322","2.0.0","373294","vxzz42lhv8jvxg5","true","21","weiblich","rechts","andere","","","null","","","","","","
      <img class=""person-img"" src=""https://raw.githubusercontent.com/saramff/face-recognition-images/refs/heads/master//men/man_7.jpg"">
      <p class=""person-name"">Aaron</p>
    ","","","",""
"null","","html-keyboard-response","323","2.0.0","374312","vxzz42lhv8jvxg5","true","21","weiblich","rechts","andere","","","null","","","","","","<div style=""font-size:60px;"">+</div>","fixation","","",""
"null","","html-keyboard-response","324","2.0.0","375322","vxzz42lhv8jvxg5","true","21","weiblich","rechts","andere","","","null","","","","","","
      <img class=""person-img"" src=""https://raw.githubusercontent.com/saramff/face-recognition-images/refs/heads/master//men/man_63.jpg"">
      <p class=""person-name"">Tim</p>
    ","","","",""
"null","","html-keyboard-response","325","2.0.0","376332","vxzz42lhv8jvxg5","true","21","weiblich","rechts","andere","","","null","","","","","","<div style=""font-size:60px;"">+</div>","fixation","","",""
"null","","html-keyboard-response","326","2.0.0","377342","vxzz42lhv8jvxg5","true","21","weiblich","rechts","andere","","","null","","","","","","
      <img class=""person-img"" src=""https://raw.githubusercontent.com/saramff/face-recognition-images/refs/heads/master//women/woman_51.jpg"">
      <p class=""person-name"">Nora</p>
    ","","","",""
"null","","html-keyboard-response","327","2.0.0","378363","vxzz42lhv8jvxg5","true","21","weiblich","rechts","andere","","","null","","","","","","<div style=""font-size:60px;"">+</div>","fixation","","",""
"null","","html-keyboard-response","328","2.0.0","379382","vxzz42lhv8jvxg5","true","21","weiblich","rechts","andere","","","null","","","","","","
      <img class=""person-img"" src=""https://raw.githubusercontent.com/saramff/face-recognition-images/refs/heads/master//men/man_5.jpg"">
      <p class=""person-name"">Jonathan</p>
    ","","","",""
"null","","html-keyboard-response","329","2.0.0","380403","vxzz42lhv8jvxg5","true","21","weiblich","rechts","andere","","","null","","","","","","<div style=""font-size:60px;"">+</div>","fixation","","",""
"null","","html-keyboard-response","330","2.0.0","381412","vxzz42lhv8jvxg5","true","21","weiblich","rechts","andere","","","null","","","","","","
      <img class=""person-img"" src=""https://raw.githubusercontent.com/saramff/face-recognition-images/refs/heads/master//women/woman_10.jpg"">
      <p class=""person-name"">Carina</p>
    ","","","",""
"null","","html-keyboard-response","331","2.0.0","382432","vxzz42lhv8jvxg5","true","21","weiblich","rechts","andere","","","null","","","","","","<div style=""font-size:60px;"">+</div>","fixation","","",""
"null","","html-keyboard-response","332","2.0.0","383442","vxzz42lhv8jvxg5","true","21","weiblich","rechts","andere","","","null","","","","","","
      <img class=""person-img"" src=""https://raw.githubusercontent.com/saramff/face-recognition-images/refs/heads/master//women/woman_27.jpg"">
      <p class=""person-name"">Elisabeth</p>
    ","","","",""
"null","","html-keyboard-response","333","2.0.0","384462","vxzz42lhv8jvxg5","true","21","weiblich","rechts","andere","","","null","","","","","","<div style=""font-size:60px;"">+</div>","fixation","","",""
"null","","html-keyboard-response","334","2.0.0","385472","vxzz42lhv8jvxg5","true","21","weiblich","rechts","andere","","","null","","","","","","
      <img class=""person-img"" src=""https://raw.githubusercontent.com/saramff/face-recognition-images/refs/heads/master//women/woman_47.jpg"">
      <p class=""person-name"">Laura</p>
    ","","","",""
"null","","html-keyboard-response","335","2.0.0","386484","vxzz42lhv8jvxg5","true","21","weiblich","rechts","andere","","","null","","","","","","<div style=""font-size:60px;"">+</div>","fixation","","",""
"null","","html-keyboard-response","336","2.0.0","387493","vxzz42lhv8jvxg5","true","21","weiblich","rechts","andere","","","null","","","","","","
      <img class=""person-img"" src=""https://raw.githubusercontent.com/saramff/face-recognition-images/refs/heads/master//women/woman_1.jpg"">
      <p class=""person-name"">Elly</p>
    ","","","",""
"null","","html-keyboard-response","337","2.0.0","388512","vxzz42lhv8jvxg5","true","21","weiblich","rechts","andere","","","null","","","","","","<div style=""font-size:60px;"">+</div>","fixation","","",""
"null","","html-keyboard-response","338","2.0.0","389533","vxzz42lhv8jvxg5","true","21","weiblich","rechts","andere","","","null","","","","","","
      <img class=""person-img"" src=""https://raw.githubusercontent.com/saramff/face-recognition-images/refs/heads/master//men/man_38.jpg"">
      <p class=""person-name"">Florian</p>
    ","","","",""
"null","","html-keyboard-response","339","2.0.0","390552","vxzz42lhv8jvxg5","true","21","weiblich","rechts","andere","","","null","","","","","","<div style=""font-size:60px;"">+</div>","fixation","","",""
"null","","html-keyboard-response","340","2.0.0","391573","vxzz42lhv8jvxg5","true","21","weiblich","rechts","andere","","","null","","","","","","
      <img class=""person-img"" src=""https://raw.githubusercontent.com/saramff/face-recognition-images/refs/heads/master//men/man_78.jpg"">
      <p class=""person-name"">Dominik</p>
    ","","","",""
"null","","html-keyboard-response","341","2.0.0","392602","vxzz42lhv8jvxg5","true","21","weiblich","rechts","andere","","","null","","","","","","<div style=""font-size:60px;"">+</div>","fixation","","",""
"null","","html-keyboard-response","342","2.0.0","393622","vxzz42lhv8jvxg5","true","21","weiblich","rechts","andere","","","null","","","","","","
      <img class=""person-img"" src=""https://raw.githubusercontent.com/saramff/face-recognition-images/refs/heads/master//men/man_92.jpg"">
      <p class=""person-name"">Jonas</p>
    ","","","",""
"null","","html-keyboard-response","343","2.0.0","394643","vxzz42lhv8jvxg5","true","21","weiblich","rechts","andere","","","null","","","","","","<div style=""font-size:60px;"">+</div>","fixation","","",""
"null","","html-keyboard-response","344","2.0.0","395664","vxzz42lhv8jvxg5","true","21","weiblich","rechts","andere","","","null","","","","","","
      <img class=""person-img"" src=""https://raw.githubusercontent.com/saramff/face-recognition-images/refs/heads/master//women/woman_76.jpg"">
      <p class=""person-name"">Klara</p>
    ","","","",""
"null","","html-keyboard-response","345","2.0.0","396693","vxzz42lhv8jvxg5","true","21","weiblich","rechts","andere","","","null","","","","","","<div style=""font-size:60px;"">+</div>","fixation","","",""
"null","","html-keyboard-response","346","2.0.0","397703","vxzz42lhv8jvxg5","true","21","weiblich","rechts","andere","","","null","","","","","","
      <img class=""person-img"" src=""https://raw.githubusercontent.com/saramff/face-recognition-images/refs/heads/master//men/man_69.jpg"">
      <p class=""person-name"">Max</p>
    ","","","",""
"null","","html-keyboard-response","347","2.0.0","398712","vxzz42lhv8jvxg5","true","21","weiblich","rechts","andere","","","null","","","","","","<div style=""font-size:60px;"">+</div>","fixation","","",""
"null","","html-keyboard-response","348","2.0.0","399723","vxzz42lhv8jvxg5","true","21","weiblich","rechts","andere","","","null","","","","","","
      <img class=""person-img"" src=""https://raw.githubusercontent.com/saramff/face-recognition-images/refs/heads/master//women/woman_84.jpg"">
      <p class=""person-name"">Valentina</p>
    ","","","",""
"null","","html-keyboard-response","349","2.0.0","400733","vxzz42lhv8jvxg5","true","21","weiblich","rechts","andere","","","null","","","","","","<div style=""font-size:60px;"">+</div>","fixation","","",""
"null","","html-keyboard-response","350","2.0.0","401753","vxzz42lhv8jvxg5","true","21","weiblich","rechts","andere","","","null","","","","","","
      <img class=""person-img"" src=""https://raw.githubusercontent.com/saramff/face-recognition-images/refs/heads/master//women/woman_24.jpg"">
      <p class=""person-name"">Alina</p>
    ","","","",""
"null","","html-keyboard-response","351","2.0.0","402771","vxzz42lhv8jvxg5","true","21","weiblich","rechts","andere","","","null","","","","","","<div style=""font-size:60px;"">+</div>","fixation","","",""
"null","","html-keyboard-response","352","2.0.0","403783","vxzz42lhv8jvxg5","true","21","weiblich","rechts","andere","","","null","","","","","","
      <img class=""person-img"" src=""https://raw.githubusercontent.com/saramff/face-recognition-images/refs/heads/master//men/man_55.jpg"">
      <p class=""person-name"">Noah</p>
    ","","","",""
"null","","html-keyboard-response","353","2.0.0","404793","vxzz42lhv8jvxg5","true","21","weiblich","rechts","andere","","","null","","","","","","<div style=""font-size:60px;"">+</div>","fixation","","",""
"null","","html-keyboard-response","354","2.0.0","405813","vxzz42lhv8jvxg5","true","21","weiblich","rechts","andere","","","null","","","","","","
      <img class=""person-img"" src=""https://raw.githubusercontent.com/saramff/face-recognition-images/refs/heads/master//men/man_56.jpg"">
      <p class=""person-name"">Moritz</p>
    ","","","",""
"null","","html-keyboard-response","355","2.0.0","406833","vxzz42lhv8jvxg5","true","21","weiblich","rechts","andere","","","null","","","","","","<div style=""font-size:60px;"">+</div>","fixation","","",""
"null","","html-keyboard-response","356","2.0.0","407842","vxzz42lhv8jvxg5","true","21","weiblich","rechts","andere","","","null","","","","","","
      <img class=""person-img"" src=""https://raw.githubusercontent.com/saramff/face-recognition-images/refs/heads/master//men/man_20.jpg"">
      <p class=""person-name"">Oskar</p>
    ","","","",""
"null","","html-keyboard-response","357","2.0.0","408872","vxzz42lhv8jvxg5","true","21","weiblich","rechts","andere","","","null","","","","","","<div style=""font-size:60px;"">+</div>","fixation","","",""
"null","","html-keyboard-response","358","2.0.0","409892","vxzz42lhv8jvxg5","true","21","weiblich","rechts","andere","","","null","","","","","","
      <img class=""person-img"" src=""https://raw.githubusercontent.com/saramff/face-recognition-images/refs/heads/master//women/woman_91.jpg"">
      <p class=""person-name"">Sarah</p>
    ","","","",""
"null","","html-keyboard-response","359","2.0.0","410913","vxzz42lhv8jvxg5","true","21","weiblich","rechts","andere","","","null","","","","","","<div style=""font-size:60px;"">+</div>","fixation","","",""
"null","","html-keyboard-response","360","2.0.0","411923","vxzz42lhv8jvxg5","true","21","weiblich","rechts","andere","","","null","","","","","","
      <img class=""person-img"" src=""https://raw.githubusercontent.com/saramff/face-recognition-images/refs/heads/master//men/man_37.jpg"">
      <p class=""person-name"">Patrick</p>
    ","","","",""
