"rt","url","trial_type","trial_index","plugin_version","time_elapsed","subject","fullscreen","age","gender","handedness","language","success","type","response","question_order","timeout","failed_images","failed_audio","failed_video","stimulus","task","correct_response","correct","correct_response_meaning"
"6501","consentA2.html","external-html","0","2.0.0","6636","qrbjgogtfr767s3","true","27","m&aumlnnlich","rechts","andere","","","","","","","","","","","","",""
"1499","","fullscreen","1","2.0.0","9147","qrbjgogtfr767s3","true","27","m&aumlnnlich","rechts","andere","true","","","","","","","","","","","",""
"2539","","survey-text","2","2.0.0","11697","qrbjgogtfr767s3","true","27","m&aumlnnlich","rechts","andere","","demo","{""Q0"":""27""}","","","","","","","","","",""
"15363","","survey-multi-choice","3","2.0.0","27062","qrbjgogtfr767s3","true","27","m&aumlnnlich","rechts","andere","","","{""gender"":""m&aumlnnlich"",""handedness"":""rechts"",""language"":""andere""}","[0,1,2]","","","","","","","","",""
"","","preload","4","2.0.0","31725","qrbjgogtfr767s3","true","27","m&aumlnnlich","rechts","andere","true","","","","false","[]","[]","[]","","","","",""
"","","preload","5","2.0.0","32490","qrbjgogtfr767s3","true","27","m&aumlnnlich","rechts","andere","true","","","","false","[]","[]","[]","","","","",""
"","","preload","6","2.0.0","33843","qrbjgogtfr767s3","true","27","m&aumlnnlich","rechts","andere","true","","","","false","[]","[]","[]","","","","",""
"2593","","html-keyboard-response","7","2.0.0","36438","qrbjgogtfr767s3","true","27","m&aumlnnlich","rechts","andere","",""," ","","","","","","Willkommen zum Experiment. Drücken Sie eine beliebige Taste, um zu beginnen.","","","",""
"10304","","html-keyboard-response","8","2.0.0","46743","qrbjgogtfr767s3","true","27","m&aumlnnlich","rechts","andere","",""," ","","","","","","
    <p>In diesem Experiment werden nacheinander automatisch verschiedene Gesichter angezeigt.</p>
    <p>Bitte achten Sie genau auf jedes Gesicht und den dazugehörigen Namen.</p>
    <p>Die Gesichter erscheinen von selbst und Sie brauchen nichts weiter zu tun, außer aufmerksam zu sein.</p>
    <p>Drücken Sie eine beliebige Taste, um zu beginnen, wenn Sie bereit sind.</p>
  ","","","",""
"null","","html-keyboard-response","9","2.0.0","47775","qrbjgogtfr767s3","true","27","m&aumlnnlich","rechts","andere","","","null","","","","","","<div style=""font-size:60px;"">+</div>","fixation","","",""
"null","","html-keyboard-response","10","2.0.0","48793","qrbjgogtfr767s3","true","27","m&aumlnnlich","rechts","andere","","","null","","","","","","
      <img class=""person-img"" src=""https://raw.githubusercontent.com/saramff/face-recognition-images/refs/heads/master//women/woman_32.jpg"">
      <p class=""person-name"">Carolin</p>
    ","","","",""
"null","","html-keyboard-response","11","2.0.0","49797","qrbjgogtfr767s3","true","27","m&aumlnnlich","rechts","andere","","","null","","","","","","<div style=""font-size:60px;"">+</div>","fixation","","",""
"null","","html-keyboard-response","12","2.0.0","50801","qrbjgogtfr767s3","true","27","m&aumlnnlich","rechts","andere","","","null","","","","","","
      <img class=""person-img"" src=""https://raw.githubusercontent.com/saramff/face-recognition-images/refs/heads/master//men/man_22.jpg"">
      <p class=""person-name"">Peter</p>
    ","","","",""
"null","","html-keyboard-response","13","2.0.0","51818","qrbjgogtfr767s3","true","27","m&aumlnnlich","rechts","andere","","","null","","","","","","<div style=""font-size:60px;"">+</div>","fixation","","",""
"null","","html-keyboard-response","14","2.0.0","52822","qrbjgogtfr767s3","true","27","m&aumlnnlich","rechts","andere","","","null","","","","","","
      <img class=""person-img"" src=""https://raw.githubusercontent.com/saramff/face-recognition-images/refs/heads/master//men/man_79.jpg"">
      <p class=""person-name"">Leon</p>
    ","","","",""
"null","","html-keyboard-response","15","2.0.0","53843","qrbjgogtfr767s3","true","27","m&aumlnnlich","rechts","andere","","","null","","","","","","<div style=""font-size:60px;"">+</div>","fixation","","",""
"null","","html-keyboard-response","16","2.0.0","54860","qrbjgogtfr767s3","true","27","m&aumlnnlich","rechts","andere","","","null","","","","","","
      <img class=""person-img"" src=""https://raw.githubusercontent.com/saramff/face-recognition-images/refs/heads/master//men/man_84.jpg"">
      <p class=""person-name"">Gereon</p>
    ","","","",""
"null","","html-keyboard-response","17","2.0.0","55877","qrbjgogtfr767s3","true","27","m&aumlnnlich","rechts","andere","","","null","","","","","","<div style=""font-size:60px;"">+</div>","fixation","","",""
"null","","html-keyboard-response","18","2.0.0","56880","qrbjgogtfr767s3","true","27","m&aumlnnlich","rechts","andere","","","null","","","","","","
      <img class=""person-img"" src=""https://raw.githubusercontent.com/saramff/face-recognition-images/refs/heads/master//women/woman_68.jpg"">
      <p class=""person-name"">Pia</p>
    ","","","",""
"null","","html-keyboard-response","19","2.0.0","57885","qrbjgogtfr767s3","true","27","m&aumlnnlich","rechts","andere","","","null","","","","","","<div style=""font-size:60px;"">+</div>","fixation","","",""
"null","","html-keyboard-response","20","2.0.0","58908","qrbjgogtfr767s3","true","27","m&aumlnnlich","rechts","andere","","","null","","","","","","
      <img class=""person-img"" src=""https://raw.githubusercontent.com/saramff/face-recognition-images/refs/heads/master//men/man_92.jpg"">
      <p class=""person-name"">Olaf</p>
    ","","","",""
"null","","html-keyboard-response","21","2.0.0","59922","qrbjgogtfr767s3","true","27","m&aumlnnlich","rechts","andere","","","null","","","","","","<div style=""font-size:60px;"">+</div>","fixation","","",""
"null","","html-keyboard-response","22","2.0.0","60926","qrbjgogtfr767s3","true","27","m&aumlnnlich","rechts","andere","","","null","","","","","","
      <img class=""person-img"" src=""https://raw.githubusercontent.com/saramff/face-recognition-images/refs/heads/master//women/woman_75.jpg"">
      <p class=""person-name"">Michaela</p>
    ","","","",""
"null","","html-keyboard-response","23","2.0.0","61944","qrbjgogtfr767s3","true","27","m&aumlnnlich","rechts","andere","","","null","","","","","","<div style=""font-size:60px;"">+</div>","fixation","","",""
"null","","html-keyboard-response","24","2.0.0","62950","qrbjgogtfr767s3","true","27","m&aumlnnlich","rechts","andere","","","null","","","","","","
      <img class=""person-img"" src=""https://raw.githubusercontent.com/saramff/face-recognition-images/refs/heads/master//women/woman_13.jpg"">
      <p class=""person-name"">Maja</p>
    ","","","",""
"null","","html-keyboard-response","25","2.0.0","63969","qrbjgogtfr767s3","true","27","m&aumlnnlich","rechts","andere","","","null","","","","","","<div style=""font-size:60px;"">+</div>","fixation","","",""
"null","","html-keyboard-response","26","2.0.0","64973","qrbjgogtfr767s3","true","27","m&aumlnnlich","rechts","andere","","","null","","","","","","
      <img class=""person-img"" src=""https://raw.githubusercontent.com/saramff/face-recognition-images/refs/heads/master//women/woman_91.jpg"">
      <p class=""person-name"">Nadine</p>
    ","","","",""
"null","","html-keyboard-response","27","2.0.0","65994","qrbjgogtfr767s3","true","27","m&aumlnnlich","rechts","andere","","","null","","","","","","<div style=""font-size:60px;"">+</div>","fixation","","",""
"null","","html-keyboard-response","28","2.0.0","67013","qrbjgogtfr767s3","true","27","m&aumlnnlich","rechts","andere","","","null","","","","","","
      <img class=""person-img"" src=""https://raw.githubusercontent.com/saramff/face-recognition-images/refs/heads/master//men/man_77.jpg"">
      <p class=""person-name"">Elias</p>
    ","","","",""
"null","","html-keyboard-response","29","2.0.0","68032","qrbjgogtfr767s3","true","27","m&aumlnnlich","rechts","andere","","","null","","","","","","<div style=""font-size:60px;"">+</div>","fixation","","",""
"null","","html-keyboard-response","30","2.0.0","69050","qrbjgogtfr767s3","true","27","m&aumlnnlich","rechts","andere","","","null","","","","","","
      <img class=""person-img"" src=""https://raw.githubusercontent.com/saramff/face-recognition-images/refs/heads/master//women/woman_62.jpg"">
      <p class=""person-name"">Elly</p>
    ","","","",""
"null","","html-keyboard-response","31","2.0.0","70071","qrbjgogtfr767s3","true","27","m&aumlnnlich","rechts","andere","","","null","","","","","","<div style=""font-size:60px;"">+</div>","fixation","","",""
"null","","html-keyboard-response","32","2.0.0","71088","qrbjgogtfr767s3","true","27","m&aumlnnlich","rechts","andere","","","null","","","","","","
      <img class=""person-img"" src=""https://raw.githubusercontent.com/saramff/face-recognition-images/refs/heads/master//men/man_23.jpg"">
      <p class=""person-name"">Anton</p>
    ","","","",""
"null","","html-keyboard-response","33","2.0.0","72104","qrbjgogtfr767s3","true","27","m&aumlnnlich","rechts","andere","","","null","","","","","","<div style=""font-size:60px;"">+</div>","fixation","","",""
"null","","html-keyboard-response","34","2.0.0","73123","qrbjgogtfr767s3","true","27","m&aumlnnlich","rechts","andere","","","null","","","","","","
      <img class=""person-img"" src=""https://raw.githubusercontent.com/saramff/face-recognition-images/refs/heads/master//women/woman_38.jpg"">
      <p class=""person-name"">Emma</p>
    ","","","",""
"null","","html-keyboard-response","35","2.0.0","74126","qrbjgogtfr767s3","true","27","m&aumlnnlich","rechts","andere","","","null","","","","","","<div style=""font-size:60px;"">+</div>","fixation","","",""
"null","","html-keyboard-response","36","2.0.0","75143","qrbjgogtfr767s3","true","27","m&aumlnnlich","rechts","andere","","","null","","","","","","
      <img class=""person-img"" src=""https://raw.githubusercontent.com/saramff/face-recognition-images/refs/heads/master//men/man_1.jpg"">
      <p class=""person-name"">David</p>
    ","","","",""
"null","","html-keyboard-response","37","2.0.0","76156","qrbjgogtfr767s3","true","27","m&aumlnnlich","rechts","andere","","","null","","","","","","<div style=""font-size:60px;"">+</div>","fixation","","",""
"null","","html-keyboard-response","38","2.0.0","77161","qrbjgogtfr767s3","true","27","m&aumlnnlich","rechts","andere","","","null","","","","","","
      <img class=""person-img"" src=""https://raw.githubusercontent.com/saramff/face-recognition-images/refs/heads/master//men/man_30.jpg"">
      <p class=""person-name"">Konrad</p>
    ","","","",""
"null","","html-keyboard-response","39","2.0.0","78182","qrbjgogtfr767s3","true","27","m&aumlnnlich","rechts","andere","","","null","","","","","","<div style=""font-size:60px;"">+</div>","fixation","","",""
"null","","html-keyboard-response","40","2.0.0","79187","qrbjgogtfr767s3","true","27","m&aumlnnlich","rechts","andere","","","null","","","","","","
      <img class=""person-img"" src=""https://raw.githubusercontent.com/saramff/face-recognition-images/refs/heads/master//men/man_26.jpg"">
      <p class=""person-name"">Theodor</p>
    ","","","",""
"null","","html-keyboard-response","41","2.0.0","80190","qrbjgogtfr767s3","true","27","m&aumlnnlich","rechts","andere","","","null","","","","","","<div style=""font-size:60px;"">+</div>","fixation","","",""
"null","","html-keyboard-response","42","2.0.0","81193","qrbjgogtfr767s3","true","27","m&aumlnnlich","rechts","andere","","","null","","","","","","
      <img class=""person-img"" src=""https://raw.githubusercontent.com/saramff/face-recognition-images/refs/heads/master//men/man_40.jpg"">
      <p class=""person-name"">Karsten</p>
    ","","","",""
"null","","html-keyboard-response","43","2.0.0","82212","qrbjgogtfr767s3","true","27","m&aumlnnlich","rechts","andere","","","null","","","","","","<div style=""font-size:60px;"">+</div>","fixation","","",""
"null","","html-keyboard-response","44","2.0.0","83216","qrbjgogtfr767s3","true","27","m&aumlnnlich","rechts","andere","","","null","","","","","","
      <img class=""person-img"" src=""https://raw.githubusercontent.com/saramff/face-recognition-images/refs/heads/master//women/woman_17.jpg"">
      <p class=""person-name"">Stella</p>
    ","","","",""
"null","","html-keyboard-response","45","2.0.0","84250","qrbjgogtfr767s3","true","27","m&aumlnnlich","rechts","andere","","","null","","","","","","<div style=""font-size:60px;"">+</div>","fixation","","",""
"null","","html-keyboard-response","46","2.0.0","85262","qrbjgogtfr767s3","true","27","m&aumlnnlich","rechts","andere","","","null","","","","","","
      <img class=""person-img"" src=""https://raw.githubusercontent.com/saramff/face-recognition-images/refs/heads/master//men/man_12.jpg"">
      <p class=""person-name"">Fabian</p>
    ","","","",""
"null","","html-keyboard-response","47","2.0.0","86292","qrbjgogtfr767s3","true","27","m&aumlnnlich","rechts","andere","","","null","","","","","","<div style=""font-size:60px;"">+</div>","fixation","","",""
"null","","html-keyboard-response","48","2.0.0","87295","qrbjgogtfr767s3","true","27","m&aumlnnlich","rechts","andere","","","null","","","","","","
      <img class=""person-img"" src=""https://raw.githubusercontent.com/saramff/face-recognition-images/refs/heads/master//men/man_58.jpg"">
      <p class=""person-name"">Michael</p>
    ","","","",""
"null","","html-keyboard-response","49","2.0.0","88313","qrbjgogtfr767s3","true","27","m&aumlnnlich","rechts","andere","","","null","","","","","","<div style=""font-size:60px;"">+</div>","fixation","","",""
"null","","html-keyboard-response","50","2.0.0","89324","qrbjgogtfr767s3","true","27","m&aumlnnlich","rechts","andere","","","null","","","","","","
      <img class=""person-img"" src=""https://raw.githubusercontent.com/saramff/face-recognition-images/refs/heads/master//men/man_72.jpg"">
      <p class=""person-name"">Ren&eacute;</p>
    ","","","",""
"null","","html-keyboard-response","51","2.0.0","90344","qrbjgogtfr767s3","true","27","m&aumlnnlich","rechts","andere","","","null","","","","","","<div style=""font-size:60px;"">+</div>","fixation","","",""
"null","","html-keyboard-response","52","2.0.0","91355","qrbjgogtfr767s3","true","27","m&aumlnnlich","rechts","andere","","","null","","","","","","
      <img class=""person-img"" src=""https://raw.githubusercontent.com/saramff/face-recognition-images/refs/heads/master//women/woman_29.jpg"">
      <p class=""person-name"">Viola</p>
    ","","","",""
"null","","html-keyboard-response","53","2.0.0","92364","qrbjgogtfr767s3","true","27","m&aumlnnlich","rechts","andere","","","null","","","","","","<div style=""font-size:60px;"">+</div>","fixation","","",""
"null","","html-keyboard-response","54","2.0.0","93371","qrbjgogtfr767s3","true","27","m&aumlnnlich","rechts","andere","","","null","","","","","","
      <img class=""person-img"" src=""https://raw.githubusercontent.com/saramff/face-recognition-images/refs/heads/master//men/man_74.jpg"">
      <p class=""person-name"">Paul</p>
    ","","","",""
"null","","html-keyboard-response","55","2.0.0","94406","qrbjgogtfr767s3","true","27","m&aumlnnlich","rechts","andere","","","null","","","","","","<div style=""font-size:60px;"">+</div>","fixation","","",""
"null","","html-keyboard-response","56","2.0.0","95421","qrbjgogtfr767s3","true","27","m&aumlnnlich","rechts","andere","","","null","","","","","","
      <img class=""person-img"" src=""https://raw.githubusercontent.com/saramff/face-recognition-images/refs/heads/master//women/woman_12.jpg"">
      <p class=""person-name"">Antonia</p>
    ","","","",""
"null","","html-keyboard-response","57","2.0.0","96437","qrbjgogtfr767s3","true","27","m&aumlnnlich","rechts","andere","","","null","","","","","","<div style=""font-size:60px;"">+</div>","fixation","","",""
"null","","html-keyboard-response","58","2.0.0","97452","qrbjgogtfr767s3","true","27","m&aumlnnlich","rechts","andere","","","null","","","","","","
      <img class=""person-img"" src=""https://raw.githubusercontent.com/saramff/face-recognition-images/refs/heads/master//men/man_20.jpg"">
      <p class=""person-name"">J&ouml;rg</p>
    ","","","",""
"null","","html-keyboard-response","59","2.0.0","98467","qrbjgogtfr767s3","true","27","m&aumlnnlich","rechts","andere","","","null","","","","","","<div style=""font-size:60px;"">+</div>","fixation","","",""
"null","","html-keyboard-response","60","2.0.0","99482","qrbjgogtfr767s3","true","27","m&aumlnnlich","rechts","andere","","","null","","","","","","
      <img class=""person-img"" src=""https://raw.githubusercontent.com/saramff/face-recognition-images/refs/heads/master//women/woman_72.jpg"">
      <p class=""person-name"">Josephine</p>
    ","","","",""
"null","","html-keyboard-response","61","2.0.0","100503","qrbjgogtfr767s3","true","27","m&aumlnnlich","rechts","andere","","","null","","","","","","<div style=""font-size:60px;"">+</div>","fixation","","",""
"null","","html-keyboard-response","62","2.0.0","101520","qrbjgogtfr767s3","true","27","m&aumlnnlich","rechts","andere","","","null","","","","","","
      <img class=""person-img"" src=""https://raw.githubusercontent.com/saramff/face-recognition-images/refs/heads/master//men/man_47.jpg"">
      <p class=""person-name"">Bj&ouml;rn</p>
    ","","","",""
"null","","html-keyboard-response","63","2.0.0","102531","qrbjgogtfr767s3","true","27","m&aumlnnlich","rechts","andere","","","null","","","","","","<div style=""font-size:60px;"">+</div>","fixation","","",""
"null","","html-keyboard-response","64","2.0.0","103549","qrbjgogtfr767s3","true","27","m&aumlnnlich","rechts","andere","","","null","","","","","","
      <img class=""person-img"" src=""https://raw.githubusercontent.com/saramff/face-recognition-images/refs/heads/master//women/woman_10.jpg"">
      <p class=""person-name"">Hannah</p>
    ","","","",""
"null","","html-keyboard-response","65","2.0.0","104576","qrbjgogtfr767s3","true","27","m&aumlnnlich","rechts","andere","","","null","","","","","","<div style=""font-size:60px;"">+</div>","fixation","","",""
"null","","html-keyboard-response","66","2.0.0","105590","qrbjgogtfr767s3","true","27","m&aumlnnlich","rechts","andere","","","null","","","","","","
      <img class=""person-img"" src=""https://raw.githubusercontent.com/saramff/face-recognition-images/refs/heads/master//women/woman_26.jpg"">
      <p class=""person-name"">Marie</p>
    ","","","",""
"null","","html-keyboard-response","67","2.0.0","106610","qrbjgogtfr767s3","true","27","m&aumlnnlich","rechts","andere","","","null","","","","","","<div style=""font-size:60px;"">+</div>","fixation","","",""
"null","","html-keyboard-response","68","2.0.0","107620","qrbjgogtfr767s3","true","27","m&aumlnnlich","rechts","andere","","","null","","","","","","
      <img class=""person-img"" src=""https://raw.githubusercontent.com/saramff/face-recognition-images/refs/heads/master//men/man_67.jpg"">
      <p class=""person-name"">Marcel</p>
    ","","","",""
"null","","html-keyboard-response","69","2.0.0","108640","qrbjgogtfr767s3","true","27","m&aumlnnlich","rechts","andere","","","null","","","","","","<div style=""font-size:60px;"">+</div>","fixation","","",""
"null","","html-keyboard-response","70","2.0.0","109652","qrbjgogtfr767s3","true","27","m&aumlnnlich","rechts","andere","","","null","","","","","","
      <img class=""person-img"" src=""https://raw.githubusercontent.com/saramff/face-recognition-images/refs/heads/master//women/woman_47.jpg"">
      <p class=""person-name"">Freya</p>
    ","","","",""
"null","","html-keyboard-response","71","2.0.0","110659","qrbjgogtfr767s3","true","27","m&aumlnnlich","rechts","andere","","","null","","","","","","<div style=""font-size:60px;"">+</div>","fixation","","",""
"null","","html-keyboard-response","72","2.0.0","111667","qrbjgogtfr767s3","true","27","m&aumlnnlich","rechts","andere","","","null","","","","","","
      <img class=""person-img"" src=""https://raw.githubusercontent.com/saramff/face-recognition-images/refs/heads/master//men/man_37.jpg"">
      <p class=""person-name"">Patrick</p>
    ","","","",""
"null","","html-keyboard-response","73","2.0.0","112712","qrbjgogtfr767s3","true","27","m&aumlnnlich","rechts","andere","","","null","","","","","","<div style=""font-size:60px;"">+</div>","fixation","","",""
"null","","html-keyboard-response","74","2.0.0","113727","qrbjgogtfr767s3","true","27","m&aumlnnlich","rechts","andere","","","null","","","","","","
      <img class=""person-img"" src=""https://raw.githubusercontent.com/saramff/face-recognition-images/refs/heads/master//men/man_15.jpg"">
      <p class=""person-name"">Axel</p>
    ","","","",""
"null","","html-keyboard-response","75","2.0.0","114765","qrbjgogtfr767s3","true","27","m&aumlnnlich","rechts","andere","","","null","","","","","","<div style=""font-size:60px;"">+</div>","fixation","","",""
"null","","html-keyboard-response","76","2.0.0","115783","qrbjgogtfr767s3","true","27","m&aumlnnlich","rechts","andere","","","null","","","","","","
      <img class=""person-img"" src=""https://raw.githubusercontent.com/saramff/face-recognition-images/refs/heads/master//women/woman_41.jpg"">
      <p class=""person-name"">Theresa</p>
    ","","","",""
"null","","html-keyboard-response","77","2.0.0","116823","qrbjgogtfr767s3","true","27","m&aumlnnlich","rechts","andere","","","null","","","","","","<div style=""font-size:60px;"">+</div>","fixation","","",""
"null","","html-keyboard-response","78","2.0.0","117826","qrbjgogtfr767s3","true","27","m&aumlnnlich","rechts","andere","","","null","","","","","","
      <img class=""person-img"" src=""https://raw.githubusercontent.com/saramff/face-recognition-images/refs/heads/master//men/man_83.jpg"">
      <p class=""person-name"">Volker</p>
    ","","","",""
"null","","html-keyboard-response","79","2.0.0","118839","qrbjgogtfr767s3","true","27","m&aumlnnlich","rechts","andere","","","null","","","","","","<div style=""font-size:60px;"">+</div>","fixation","","",""
"null","","html-keyboard-response","80","2.0.0","119841","qrbjgogtfr767s3","true","27","m&aumlnnlich","rechts","andere","","","null","","","","","","
      <img class=""person-img"" src=""https://raw.githubusercontent.com/saramff/face-recognition-images/refs/heads/master//men/man_45.jpg"">
      <p class=""person-name"">Oliver</p>
    ","","","",""
"null","","html-keyboard-response","81","2.0.0","120852","qrbjgogtfr767s3","true","27","m&aumlnnlich","rechts","andere","","","null","","","","","","<div style=""font-size:60px;"">+</div>","fixation","","",""
"null","","html-keyboard-response","82","2.0.0","121858","qrbjgogtfr767s3","true","27","m&aumlnnlich","rechts","andere","","","null","","","","","","
      <img class=""person-img"" src=""https://raw.githubusercontent.com/saramff/face-recognition-images/refs/heads/master//women/woman_3.jpg"">
      <p class=""person-name"">Lisa</p>
    ","","","",""
"null","","html-keyboard-response","83","2.0.0","122893","qrbjgogtfr767s3","true","27","m&aumlnnlich","rechts","andere","","","null","","","","","","<div style=""font-size:60px;"">+</div>","fixation","","",""
"null","","html-keyboard-response","84","2.0.0","123898","qrbjgogtfr767s3","true","27","m&aumlnnlich","rechts","andere","","","null","","","","","","
      <img class=""person-img"" src=""https://raw.githubusercontent.com/saramff/face-recognition-images/refs/heads/master//women/woman_89.jpg"">
      <p class=""person-name"">Johanna</p>
    ","","","",""
"null","","html-keyboard-response","85","2.0.0","124918","qrbjgogtfr767s3","true","27","m&aumlnnlich","rechts","andere","","","null","","","","","","<div style=""font-size:60px;"">+</div>","fixation","","",""
"null","","html-keyboard-response","86","2.0.0","125924","qrbjgogtfr767s3","true","27","m&aumlnnlich","rechts","andere","","","null","","","","","","
      <img class=""person-img"" src=""https://raw.githubusercontent.com/saramff/face-recognition-images/refs/heads/master//women/woman_93.jpg"">
      <p class=""person-name"">Nora</p>
    ","","","",""
"null","","html-keyboard-response","87","2.0.0","126944","qrbjgogtfr767s3","true","27","m&aumlnnlich","rechts","andere","","","null","","","","","","<div style=""font-size:60px;"">+</div>","fixation","","",""
"null","","html-keyboard-response","88","2.0.0","127953","qrbjgogtfr767s3","true","27","m&aumlnnlich","rechts","andere","","","null","","","","","","
      <img class=""person-img"" src=""https://raw.githubusercontent.com/saramff/face-recognition-images/refs/heads/master//men/man_24.jpg"">
      <p class=""person-name"">Gabriel</p>
    ","","","",""
"null","","html-keyboard-response","89","2.0.0","128958","qrbjgogtfr767s3","true","27","m&aumlnnlich","rechts","andere","","","null","","","","","","<div style=""font-size:60px;"">+</div>","fixation","","",""
"null","","html-keyboard-response","90","2.0.0","129976","qrbjgogtfr767s3","true","27","m&aumlnnlich","rechts","andere","","","null","","","","","","
      <img class=""person-img"" src=""https://raw.githubusercontent.com/saramff/face-recognition-images/refs/heads/master//women/woman_50.jpg"">
      <p class=""person-name"">Lilly</p>
    ","","","",""
"null","","html-keyboard-response","91","2.0.0","130981","qrbjgogtfr767s3","true","27","m&aumlnnlich","rechts","andere","","","null","","","","","","<div style=""font-size:60px;"">+</div>","fixation","","",""
"null","","html-keyboard-response","92","2.0.0","131989","qrbjgogtfr767s3","true","27","m&aumlnnlich","rechts","andere","","","null","","","","","","
      <img class=""person-img"" src=""https://raw.githubusercontent.com/saramff/face-recognition-images/refs/heads/master//men/man_68.jpg"">
      <p class=""person-name"">Max</p>
    ","","","",""
"null","","html-keyboard-response","93","2.0.0","133001","qrbjgogtfr767s3","true","27","m&aumlnnlich","rechts","andere","","","null","","","","","","<div style=""font-size:60px;"">+</div>","fixation","","",""
"null","","html-keyboard-response","94","2.0.0","134007","qrbjgogtfr767s3","true","27","m&aumlnnlich","rechts","andere","","","null","","","","","","
      <img class=""person-img"" src=""https://raw.githubusercontent.com/saramff/face-recognition-images/refs/heads/master//women/woman_28.jpg"">
      <p class=""person-name"">Jasmin</p>
    ","","","",""
"null","","html-keyboard-response","95","2.0.0","135018","qrbjgogtfr767s3","true","27","m&aumlnnlich","rechts","andere","","","null","","","","","","<div style=""font-size:60px;"">+</div>","fixation","","",""
"null","","html-keyboard-response","96","2.0.0","136024","qrbjgogtfr767s3","true","27","m&aumlnnlich","rechts","andere","","","null","","","","","","
      <img class=""person-img"" src=""https://raw.githubusercontent.com/saramff/face-recognition-images/refs/heads/master//women/woman_53.jpg"">
      <p class=""person-name"">Karlotta</p>
    ","","","",""
"null","","html-keyboard-response","97","2.0.0","137039","qrbjgogtfr767s3","true","27","m&aumlnnlich","rechts","andere","","","null","","","","","","<div style=""font-size:60px;"">+</div>","fixation","","",""
"null","","html-keyboard-response","98","2.0.0","138055","qrbjgogtfr767s3","true","27","m&aumlnnlich","rechts","andere","","","null","","","","","","
      <img class=""person-img"" src=""https://raw.githubusercontent.com/saramff/face-recognition-images/refs/heads/master//men/man_14.jpg"">
      <p class=""person-name"">Clemens</p>
    ","","","",""
"null","","html-keyboard-response","99","2.0.0","139083","qrbjgogtfr767s3","true","27","m&aumlnnlich","rechts","andere","","","null","","","","","","<div style=""font-size:60px;"">+</div>","fixation","","",""
"null","","html-keyboard-response","100","2.0.0","140087","qrbjgogtfr767s3","true","27","m&aumlnnlich","rechts","andere","","","null","","","","","","
      <img class=""person-img"" src=""https://raw.githubusercontent.com/saramff/face-recognition-images/refs/heads/master//women/woman_42.jpg"">
      <p class=""person-name"">Ariane</p>
    ","","","",""
"null","","html-keyboard-response","101","2.0.0","141099","qrbjgogtfr767s3","true","27","m&aumlnnlich","rechts","andere","","","null","","","","","","<div style=""font-size:60px;"">+</div>","fixation","","",""
"null","","html-keyboard-response","102","2.0.0","142119","qrbjgogtfr767s3","true","27","m&aumlnnlich","rechts","andere","","","null","","","","","","
      <img class=""person-img"" src=""https://raw.githubusercontent.com/saramff/face-recognition-images/refs/heads/master//women/woman_94.jpg"">
      <p class=""person-name"">Greta</p>
    ","","","",""
"null","","html-keyboard-response","103","2.0.0","143131","qrbjgogtfr767s3","true","27","m&aumlnnlich","rechts","andere","","","null","","","","","","<div style=""font-size:60px;"">+</div>","fixation","","",""
"null","","html-keyboard-response","104","2.0.0","144134","qrbjgogtfr767s3","true","27","m&aumlnnlich","rechts","andere","","","null","","","","","","
      <img class=""person-img"" src=""https://raw.githubusercontent.com/saramff/face-recognition-images/refs/heads/master//men/man_43.jpg"">
      <p class=""person-name"">Bernd</p>
    ","","","",""
"null","","html-keyboard-response","105","2.0.0","145169","qrbjgogtfr767s3","true","27","m&aumlnnlich","rechts","andere","","","null","","","","","","<div style=""font-size:60px;"">+</div>","fixation","","",""
"null","","html-keyboard-response","106","2.0.0","146186","qrbjgogtfr767s3","true","27","m&aumlnnlich","rechts","andere","","","null","","","","","","
      <img class=""person-img"" src=""https://raw.githubusercontent.com/saramff/face-recognition-images/refs/heads/master//men/man_31.jpg"">
      <p class=""person-name"">Holger</p>
    ","","","",""
"null","","html-keyboard-response","107","2.0.0","147201","qrbjgogtfr767s3","true","27","m&aumlnnlich","rechts","andere","","","null","","","","","","<div style=""font-size:60px;"">+</div>","fixation","","",""
"null","","html-keyboard-response","108","2.0.0","148216","qrbjgogtfr767s3","true","27","m&aumlnnlich","rechts","andere","","","null","","","","","","
      <img class=""person-img"" src=""https://raw.githubusercontent.com/saramff/face-recognition-images/refs/heads/master//women/woman_77.jpg"">
      <p class=""person-name"">Veronika</p>
    ","","","",""
"null","","html-keyboard-response","109","2.0.0","149229","qrbjgogtfr767s3","true","27","m&aumlnnlich","rechts","andere","","","null","","","","","","<div style=""font-size:60px;"">+</div>","fixation","","",""
"null","","html-keyboard-response","110","2.0.0","150234","qrbjgogtfr767s3","true","27","m&aumlnnlich","rechts","andere","","","null","","","","","","
      <img class=""person-img"" src=""https://raw.githubusercontent.com/saramff/face-recognition-images/refs/heads/master//men/man_5.jpg"">
      <p class=""person-name"">Matthias</p>
    ","","","",""
"null","","html-keyboard-response","111","2.0.0","151266","qrbjgogtfr767s3","true","27","m&aumlnnlich","rechts","andere","","","null","","","","","","<div style=""font-size:60px;"">+</div>","fixation","","",""
"null","","html-keyboard-response","112","2.0.0","152275","qrbjgogtfr767s3","true","27","m&aumlnnlich","rechts","andere","","","null","","","","","","
      <img class=""person-img"" src=""https://raw.githubusercontent.com/saramff/face-recognition-images/refs/heads/master//women/woman_19.jpg"">
      <p class=""person-name"">Janina</p>
    ","","","",""
"null","","html-keyboard-response","113","2.0.0","153298","qrbjgogtfr767s3","true","27","m&aumlnnlich","rechts","andere","","","null","","","","","","<div style=""font-size:60px;"">+</div>","fixation","","",""
"null","","html-keyboard-response","114","2.0.0","154306","qrbjgogtfr767s3","true","27","m&aumlnnlich","rechts","andere","","","null","","","","","","
      <img class=""person-img"" src=""https://raw.githubusercontent.com/saramff/face-recognition-images/refs/heads/master//women/woman_59.jpg"">
      <p class=""person-name"">Lena</p>
    ","","","",""
"null","","html-keyboard-response","115","2.0.0","155316","qrbjgogtfr767s3","true","27","m&aumlnnlich","rechts","andere","","","null","","","","","","<div style=""font-size:60px;"">+</div>","fixation","","",""
"null","","html-keyboard-response","116","2.0.0","156330","qrbjgogtfr767s3","true","27","m&aumlnnlich","rechts","andere","","","null","","","","","","
      <img class=""person-img"" src=""https://raw.githubusercontent.com/saramff/face-recognition-images/refs/heads/master//women/woman_44.jpg"">
      <p class=""person-name"">Annalena</p>
    ","","","",""
"null","","html-keyboard-response","117","2.0.0","157343","qrbjgogtfr767s3","true","27","m&aumlnnlich","rechts","andere","","","null","","","","","","<div style=""font-size:60px;"">+</div>","fixation","","",""
"null","","html-keyboard-response","118","2.0.0","158346","qrbjgogtfr767s3","true","27","m&aumlnnlich","rechts","andere","","","null","","","","","","
      <img class=""person-img"" src=""https://raw.githubusercontent.com/saramff/face-recognition-images/refs/heads/master//women/woman_76.jpg"">
      <p class=""person-name"">Klara</p>
    ","","","",""
"null","","html-keyboard-response","119","2.0.0","159359","qrbjgogtfr767s3","true","27","m&aumlnnlich","rechts","andere","","","null","","","","","","<div style=""font-size:60px;"">+</div>","fixation","","",""
"null","","html-keyboard-response","120","2.0.0","160374","qrbjgogtfr767s3","true","27","m&aumlnnlich","rechts","andere","","","null","","","","","","
      <img class=""person-img"" src=""https://raw.githubusercontent.com/saramff/face-recognition-images/refs/heads/master//men/man_7.jpg"">
      <p class=""person-name"">Ralf</p>
    ","","","",""
"null","","html-keyboard-response","121","2.0.0","161395","qrbjgogtfr767s3","true","27","m&aumlnnlich","rechts","andere","","","null","","","","","","<div style=""font-size:60px;"">+</div>","fixation","","",""
"null","","html-keyboard-response","122","2.0.0","162405","qrbjgogtfr767s3","true","27","m&aumlnnlich","rechts","andere","","","null","","","","","","
      <img class=""person-img"" src=""https://raw.githubusercontent.com/saramff/face-recognition-images/refs/heads/master//men/man_35.jpg"">
      <p class=""person-name"">Philipp</p>
    ","","","",""
"null","","html-keyboard-response","123","2.0.0","163414","qrbjgogtfr767s3","true","27","m&aumlnnlich","rechts","andere","","","null","","","","","","<div style=""font-size:60px;"">+</div>","fixation","","",""
"null","","html-keyboard-response","124","2.0.0","164422","qrbjgogtfr767s3","true","27","m&aumlnnlich","rechts","andere","","","null","","","","","","
      <img class=""person-img"" src=""https://raw.githubusercontent.com/saramff/face-recognition-images/refs/heads/master//men/man_36.jpg"">
      <p class=""person-name"">Rolf</p>
    ","","","",""
"null","","html-keyboard-response","125","2.0.0","165455","qrbjgogtfr767s3","true","27","m&aumlnnlich","rechts","andere","","","null","","","","","","<div style=""font-size:60px;"">+</div>","fixation","","",""
"null","","html-keyboard-response","126","2.0.0","166459","qrbjgogtfr767s3","true","27","m&aumlnnlich","rechts","andere","","","null","","","","","","
      <img class=""person-img"" src=""https://raw.githubusercontent.com/saramff/face-recognition-images/refs/heads/master//men/man_87.jpg"">
      <p class=""person-name"">Alexander</p>
    ","","","",""
"null","","html-keyboard-response","127","2.0.0","167475","qrbjgogtfr767s3","true","27","m&aumlnnlich","rechts","andere","","","null","","","","","","<div style=""font-size:60px;"">+</div>","fixation","","",""
"null","","html-keyboard-response","128","2.0.0","168483","qrbjgogtfr767s3","true","27","m&aumlnnlich","rechts","andere","","","null","","","","","","
      <img class=""person-img"" src=""https://raw.githubusercontent.com/saramff/face-recognition-images/refs/heads/master//women/woman_24.jpg"">
      <p class=""person-name"">Lotte</p>
    ","","","",""
"null","","html-keyboard-response","129","2.0.0","169509","qrbjgogtfr767s3","true","27","m&aumlnnlich","rechts","andere","","","null","","","","","","<div style=""font-size:60px;"">+</div>","fixation","","",""
"null","","html-keyboard-response","130","2.0.0","170518","qrbjgogtfr767s3","true","27","m&aumlnnlich","rechts","andere","","","null","","","","","","
      <img class=""person-img"" src=""https://raw.githubusercontent.com/saramff/face-recognition-images/refs/heads/master//women/woman_11.jpg"">
      <p class=""person-name"">Claudia</p>
    ","","","",""
"null","","html-keyboard-response","131","2.0.0","171531","qrbjgogtfr767s3","true","27","m&aumlnnlich","rechts","andere","","","null","","","","","","<div style=""font-size:60px;"">+</div>","fixation","","",""
"null","","html-keyboard-response","132","2.0.0","172548","qrbjgogtfr767s3","true","27","m&aumlnnlich","rechts","andere","","","null","","","","","","
      <img class=""person-img"" src=""https://raw.githubusercontent.com/saramff/face-recognition-images/refs/heads/master//women/woman_84.jpg"">
      <p class=""person-name"">Celine</p>
    ","","","",""
"null","","html-keyboard-response","133","2.0.0","173568","qrbjgogtfr767s3","true","27","m&aumlnnlich","rechts","andere","","","null","","","","","","<div style=""font-size:60px;"">+</div>","fixation","","",""
"null","","html-keyboard-response","134","2.0.0","174572","qrbjgogtfr767s3","true","27","m&aumlnnlich","rechts","andere","","","null","","","","","","
      <img class=""person-img"" src=""https://raw.githubusercontent.com/saramff/face-recognition-images/refs/heads/master//women/woman_31.jpg"">
      <p class=""person-name"">Katharina</p>
    ","","","",""
"null","","html-keyboard-response","135","2.0.0","175589","qrbjgogtfr767s3","true","27","m&aumlnnlich","rechts","andere","","","null","","","","","","<div style=""font-size:60px;"">+</div>","fixation","","",""
"null","","html-keyboard-response","136","2.0.0","176600","qrbjgogtfr767s3","true","27","m&aumlnnlich","rechts","andere","","","null","","","","","","
      <img class=""person-img"" src=""https://raw.githubusercontent.com/saramff/face-recognition-images/refs/heads/master//men/man_42.jpg"">
      <p class=""person-name"">Ludwig</p>
    ","","","",""
"null","","html-keyboard-response","137","2.0.0","177607","qrbjgogtfr767s3","true","27","m&aumlnnlich","rechts","andere","","","null","","","","","","<div style=""font-size:60px;"">+</div>","fixation","","",""
"null","","html-keyboard-response","138","2.0.0","178620","qrbjgogtfr767s3","true","27","m&aumlnnlich","rechts","andere","","","null","","","","","","
      <img class=""person-img"" src=""https://raw.githubusercontent.com/saramff/face-recognition-images/refs/heads/master//women/woman_45.jpg"">
      <p class=""person-name"">Verena</p>
    ","","","",""
"null","","html-keyboard-response","139","2.0.0","179633","qrbjgogtfr767s3","true","27","m&aumlnnlich","rechts","andere","","","null","","","","","","<div style=""font-size:60px;"">+</div>","fixation","","",""
"null","","html-keyboard-response","140","2.0.0","180651","qrbjgogtfr767s3","true","27","m&aumlnnlich","rechts","andere","","","null","","","","","","
      <img class=""person-img"" src=""https://raw.githubusercontent.com/saramff/face-recognition-images/refs/heads/master//women/woman_92.jpg"">
      <p class=""person-name"">Selma</p>
    ","","","",""
"null","","html-keyboard-response","141","2.0.0","181664","qrbjgogtfr767s3","true","27","m&aumlnnlich","rechts","andere","","","null","","","","","","<div style=""font-size:60px;"">+</div>","fixation","","",""
"null","","html-keyboard-response","142","2.0.0","182669","qrbjgogtfr767s3","true","27","m&aumlnnlich","rechts","andere","","","null","","","","","","
      <img class=""person-img"" src=""https://raw.githubusercontent.com/saramff/face-recognition-images/refs/heads/master//men/man_29.jpg"">
      <p class=""person-name"">Richard</p>
    ","","","",""
"null","","html-keyboard-response","143","2.0.0","183680","qrbjgogtfr767s3","true","27","m&aumlnnlich","rechts","andere","","","null","","","","","","<div style=""font-size:60px;"">+</div>","fixation","","",""
"null","","html-keyboard-response","144","2.0.0","184694","qrbjgogtfr767s3","true","27","m&aumlnnlich","rechts","andere","","","null","","","","","","
      <img class=""person-img"" src=""https://raw.githubusercontent.com/saramff/face-recognition-images/refs/heads/master//women/woman_96.jpg"">
      <p class=""person-name"">Rosalie</p>
    ","","","",""
"null","","html-keyboard-response","145","2.0.0","185707","qrbjgogtfr767s3","true","27","m&aumlnnlich","rechts","andere","","","null","","","","","","<div style=""font-size:60px;"">+</div>","fixation","","",""
"null","","html-keyboard-response","146","2.0.0","186720","qrbjgogtfr767s3","true","27","m&aumlnnlich","rechts","andere","","","null","","","","","","
      <img class=""person-img"" src=""https://raw.githubusercontent.com/saramff/face-recognition-images/refs/heads/master//women/woman_7.jpg"">
      <p class=""person-name"">Franziska</p>
    ","","","",""
"null","","html-keyboard-response","147","2.0.0","187741","qrbjgogtfr767s3","true","27","m&aumlnnlich","rechts","andere","","","null","","","","","","<div style=""font-size:60px;"">+</div>","fixation","","",""
"null","","html-keyboard-response","148","2.0.0","188759","qrbjgogtfr767s3","true","27","m&aumlnnlich","rechts","andere","","","null","","","","","","
      <img class=""person-img"" src=""https://raw.githubusercontent.com/saramff/face-recognition-images/refs/heads/master//men/man_66.jpg"">
      <p class=""person-name"">Thorsten</p>
    ","","","",""
"null","","html-keyboard-response","149","2.0.0","189782","qrbjgogtfr767s3","true","27","m&aumlnnlich","rechts","andere","","","null","","","","","","<div style=""font-size:60px;"">+</div>","fixation","","",""
"null","","html-keyboard-response","150","2.0.0","190793","qrbjgogtfr767s3","true","27","m&aumlnnlich","rechts","andere","","","null","","","","","","
      <img class=""person-img"" src=""https://raw.githubusercontent.com/saramff/face-recognition-images/refs/heads/master//men/man_34.jpg"">
      <p class=""person-name"">Ingo</p>
    ","","","",""
"null","","html-keyboard-response","151","2.0.0","191801","qrbjgogtfr767s3","true","27","m&aumlnnlich","rechts","andere","","","null","","","","","","<div style=""font-size:60px;"">+</div>","fixation","","",""
"null","","html-keyboard-response","152","2.0.0","192815","qrbjgogtfr767s3","true","27","m&aumlnnlich","rechts","andere","","","null","","","","","","
      <img class=""person-img"" src=""https://raw.githubusercontent.com/saramff/face-recognition-images/refs/heads/master//men/man_32.jpg"">
      <p class=""person-name"">Raphael</p>
    ","","","",""
"null","","html-keyboard-response","153","2.0.0","193867","qrbjgogtfr767s3","true","27","m&aumlnnlich","rechts","andere","","","null","","","","","","<div style=""font-size:60px;"">+</div>","fixation","","",""
"null","","html-keyboard-response","154","2.0.0","194877","qrbjgogtfr767s3","true","27","m&aumlnnlich","rechts","andere","","","null","","","","","","
      <img class=""person-img"" src=""https://raw.githubusercontent.com/saramff/face-recognition-images/refs/heads/master//women/woman_63.jpg"">
      <p class=""person-name"">Helena</p>
    ","","","",""
"null","","html-keyboard-response","155","2.0.0","195905","qrbjgogtfr767s3","true","27","m&aumlnnlich","rechts","andere","","","null","","","","","","<div style=""font-size:60px;"">+</div>","fixation","","",""
"null","","html-keyboard-response","156","2.0.0","196920","qrbjgogtfr767s3","true","27","m&aumlnnlich","rechts","andere","","","null","","","","","","
      <img class=""person-img"" src=""https://raw.githubusercontent.com/saramff/face-recognition-images/refs/heads/master//women/woman_48.jpg"">
      <p class=""person-name"">Anouk</p>
    ","","","",""
"null","","html-keyboard-response","157","2.0.0","197946","qrbjgogtfr767s3","true","27","m&aumlnnlich","rechts","andere","","","null","","","","","","<div style=""font-size:60px;"">+</div>","fixation","","",""
"null","","html-keyboard-response","158","2.0.0","198962","qrbjgogtfr767s3","true","27","m&aumlnnlich","rechts","andere","","","null","","","","","","
      <img class=""person-img"" src=""https://raw.githubusercontent.com/saramff/face-recognition-images/refs/heads/master//men/man_78.jpg"">
      <p class=""person-name"">Achim</p>
    ","","","",""
"null","","html-keyboard-response","159","2.0.0","199974","qrbjgogtfr767s3","true","27","m&aumlnnlich","rechts","andere","","","null","","","","","","<div style=""font-size:60px;"">+</div>","fixation","","",""
"null","","html-keyboard-response","160","2.0.0","200990","qrbjgogtfr767s3","true","27","m&aumlnnlich","rechts","andere","","","null","","","","","","
      <img class=""person-img"" src=""https://raw.githubusercontent.com/saramff/face-recognition-images/refs/heads/master//men/man_65.jpg"">
      <p class=""person-name"">Emil</p>
    ","","","",""
"null","","html-keyboard-response","161","2.0.0","202017","qrbjgogtfr767s3","true","27","m&aumlnnlich","rechts","andere","","","null","","","","","","<div style=""font-size:60px;"">+</div>","fixation","","",""
"null","","html-keyboard-response","162","2.0.0","203023","qrbjgogtfr767s3","true","27","m&aumlnnlich","rechts","andere","","","null","","","","","","
      <img class=""person-img"" src=""https://raw.githubusercontent.com/saramff/face-recognition-images/refs/heads/master//men/man_48.jpg"">
      <p class=""person-name"">Jonas</p>
    ","","","",""
"null","","html-keyboard-response","163","2.0.0","204043","qrbjgogtfr767s3","true","27","m&aumlnnlich","rechts","andere","","","null","","","","","","<div style=""font-size:60px;"">+</div>","fixation","","",""
"null","","html-keyboard-response","164","2.0.0","205060","qrbjgogtfr767s3","true","27","m&aumlnnlich","rechts","andere","","","null","","","","","","
      <img class=""person-img"" src=""https://raw.githubusercontent.com/saramff/face-recognition-images/refs/heads/master//women/woman_2.jpg"">
      <p class=""person-name"">Charlotte</p>
    ","","","",""
"null","","html-keyboard-response","165","2.0.0","206080","qrbjgogtfr767s3","true","27","m&aumlnnlich","rechts","andere","","","null","","","","","","<div style=""font-size:60px;"">+</div>","fixation","","",""
"null","","html-keyboard-response","166","2.0.0","207091","qrbjgogtfr767s3","true","27","m&aumlnnlich","rechts","andere","","","null","","","","","","
      <img class=""person-img"" src=""https://raw.githubusercontent.com/saramff/face-recognition-images/refs/heads/master//women/woman_18.jpg"">
      <p class=""person-name"">Henni</p>
    ","","","",""
"null","","html-keyboard-response","167","2.0.0","208107","qrbjgogtfr767s3","true","27","m&aumlnnlich","rechts","andere","","","null","","","","","","<div style=""font-size:60px;"">+</div>","fixation","","",""
"null","","html-keyboard-response","168","2.0.0","209110","qrbjgogtfr767s3","true","27","m&aumlnnlich","rechts","andere","","","null","","","","","","
      <img class=""person-img"" src=""https://raw.githubusercontent.com/saramff/face-recognition-images/refs/heads/master//men/man_85.jpg"">
      <p class=""person-name"">Albert</p>
    ","","","",""
"null","","html-keyboard-response","169","2.0.0","210124","qrbjgogtfr767s3","true","27","m&aumlnnlich","rechts","andere","","","null","","","","","","<div style=""font-size:60px;"">+</div>","fixation","","",""
"null","","html-keyboard-response","170","2.0.0","211135","qrbjgogtfr767s3","true","27","m&aumlnnlich","rechts","andere","","","null","","","","","","
      <img class=""person-img"" src=""https://raw.githubusercontent.com/saramff/face-recognition-images/refs/heads/master//women/woman_70.jpg"">
      <p class=""person-name"">Leila</p>
    ","","","",""
"null","","html-keyboard-response","171","2.0.0","212150","qrbjgogtfr767s3","true","27","m&aumlnnlich","rechts","andere","","","null","","","","","","<div style=""font-size:60px;"">+</div>","fixation","","",""
"null","","html-keyboard-response","172","2.0.0","213153","qrbjgogtfr767s3","true","27","m&aumlnnlich","rechts","andere","","","null","","","","","","
      <img class=""person-img"" src=""https://raw.githubusercontent.com/saramff/face-recognition-images/refs/heads/master//women/woman_25.jpg"">
      <p class=""person-name"">Frauke</p>
    ","","","",""
"null","","html-keyboard-response","173","2.0.0","214171","qrbjgogtfr767s3","true","27","m&aumlnnlich","rechts","andere","","","null","","","","","","<div style=""font-size:60px;"">+</div>","fixation","","",""
"null","","html-keyboard-response","174","2.0.0","215184","qrbjgogtfr767s3","true","27","m&aumlnnlich","rechts","andere","","","null","","","","","","
      <img class=""person-img"" src=""https://raw.githubusercontent.com/saramff/face-recognition-images/refs/heads/master//men/man_60.jpg"">
      <p class=""person-name"">Sven</p>
    ","","","",""
"null","","html-keyboard-response","175","2.0.0","216219","qrbjgogtfr767s3","true","27","m&aumlnnlich","rechts","andere","","","null","","","","","","<div style=""font-size:60px;"">+</div>","fixation","","",""
"null","","html-keyboard-response","176","2.0.0","217233","qrbjgogtfr767s3","true","27","m&aumlnnlich","rechts","andere","","","null","","","","","","
      <img class=""person-img"" src=""https://raw.githubusercontent.com/saramff/face-recognition-images/refs/heads/master//women/woman_14.jpg"">
      <p class=""person-name"">Carla</p>
    ","","","",""
"null","","html-keyboard-response","177","2.0.0","218248","qrbjgogtfr767s3","true","27","m&aumlnnlich","rechts","andere","","","null","","","","","","<div style=""font-size:60px;"">+</div>","fixation","","",""
"null","","html-keyboard-response","178","2.0.0","219253","qrbjgogtfr767s3","true","27","m&aumlnnlich","rechts","andere","","","null","","","","","","
      <img class=""person-img"" src=""https://raw.githubusercontent.com/saramff/face-recognition-images/refs/heads/master//men/man_96.jpg"">
      <p class=""person-name"">Hendrik</p>
    ","","","",""
"null","","html-keyboard-response","179","2.0.0","220267","qrbjgogtfr767s3","true","27","m&aumlnnlich","rechts","andere","","","null","","","","","","<div style=""font-size:60px;"">+</div>","fixation","","",""
"null","","html-keyboard-response","180","2.0.0","221283","qrbjgogtfr767s3","true","27","m&aumlnnlich","rechts","andere","","","null","","","","","","
      <img class=""person-img"" src=""https://raw.githubusercontent.com/saramff/face-recognition-images/refs/heads/master//men/man_73.jpg"">
      <p class=""person-name"">Julian</p>
    ","","","",""
"null","","html-keyboard-response","181","2.0.0","222300","qrbjgogtfr767s3","true","27","m&aumlnnlich","rechts","andere","","","null","","","","","","<div style=""font-size:60px;"">+</div>","fixation","","",""
"null","","html-keyboard-response","182","2.0.0","223312","qrbjgogtfr767s3","true","27","m&aumlnnlich","rechts","andere","","","null","","","","","","
      <img class=""person-img"" src=""https://raw.githubusercontent.com/saramff/face-recognition-images/refs/heads/master//women/woman_35.jpg"">
      <p class=""person-name"">Beate</p>
    ","","","",""
"null","","html-keyboard-response","183","2.0.0","224333","qrbjgogtfr767s3","true","27","m&aumlnnlich","rechts","andere","","","null","","","","","","<div style=""font-size:60px;"">+</div>","fixation","","",""
"null","","html-keyboard-response","184","2.0.0","225337","qrbjgogtfr767s3","true","27","m&aumlnnlich","rechts","andere","","","null","","","","","","
      <img class=""person-img"" src=""https://raw.githubusercontent.com/saramff/face-recognition-images/refs/heads/master//men/man_63.jpg"">
      <p class=""person-name"">Leonard</p>
    ","","","",""
"null","","html-keyboard-response","185","2.0.0","226358","qrbjgogtfr767s3","true","27","m&aumlnnlich","rechts","andere","","","null","","","","","","<div style=""font-size:60px;"">+</div>","fixation","","",""
"null","","html-keyboard-response","186","2.0.0","227368","qrbjgogtfr767s3","true","27","m&aumlnnlich","rechts","andere","","","null","","","","","","
      <img class=""person-img"" src=""https://raw.githubusercontent.com/saramff/face-recognition-images/refs/heads/master//women/woman_67.jpg"">
      <p class=""person-name"">Livia</p>
    ","","","",""
"null","","html-keyboard-response","187","2.0.0","228380","qrbjgogtfr767s3","true","27","m&aumlnnlich","rechts","andere","","","null","","","","","","<div style=""font-size:60px;"">+</div>","fixation","","",""
"null","","html-keyboard-response","188","2.0.0","229397","qrbjgogtfr767s3","true","27","m&aumlnnlich","rechts","andere","","","null","","","","","","
      <img class=""person-img"" src=""https://raw.githubusercontent.com/saramff/face-recognition-images/refs/heads/master//women/woman_82.jpg"">
      <p class=""person-name"">Ayla</p>
    ","","","",""
"null","","html-keyboard-response","189","2.0.0","230415","qrbjgogtfr767s3","true","27","m&aumlnnlich","rechts","andere","","","null","","","","","","<div style=""font-size:60px;"">+</div>","fixation","","",""
"null","","html-keyboard-response","190","2.0.0","231430","qrbjgogtfr767s3","true","27","m&aumlnnlich","rechts","andere","","","null","","","","","","
      <img class=""person-img"" src=""https://raw.githubusercontent.com/saramff/face-recognition-images/refs/heads/master//women/woman_64.jpg"">
      <p class=""person-name"">Sina</p>
    ","","","",""
"null","","html-keyboard-response","191","2.0.0","232459","qrbjgogtfr767s3","true","27","m&aumlnnlich","rechts","andere","","","null","","","","","","<div style=""font-size:60px;"">+</div>","fixation","","",""
"null","","html-keyboard-response","192","2.0.0","233464","qrbjgogtfr767s3","true","27","m&aumlnnlich","rechts","andere","","","null","","","","","","
      <img class=""person-img"" src=""https://raw.githubusercontent.com/saramff/face-recognition-images/refs/heads/master//women/woman_90.jpg"">
      <p class=""person-name"">Leonie</p>
    ","","","",""
"null","","html-keyboard-response","193","2.0.0","234490","qrbjgogtfr767s3","true","27","m&aumlnnlich","rechts","andere","","","null","","","","","","<div style=""font-size:60px;"">+</div>","fixation","","",""
"null","","html-keyboard-response","194","2.0.0","235494","qrbjgogtfr767s3","true","27","m&aumlnnlich","rechts","andere","","","null","","","","","","
      <img class=""person-img"" src=""https://raw.githubusercontent.com/saramff/face-recognition-images/refs/heads/master//men/man_52.jpg"">
      <p class=""person-name"">Jonathan</p>
    ","","","",""
"null","","html-keyboard-response","195","2.0.0","236507","qrbjgogtfr767s3","true","27","m&aumlnnlich","rechts","andere","","","null","","","","","","<div style=""font-size:60px;"">+</div>","fixation","","",""
"null","","html-keyboard-response","196","2.0.0","237510","qrbjgogtfr767s3","true","27","m&aumlnnlich","rechts","andere","","","null","","","","","","
      <img class=""person-img"" src=""https://raw.githubusercontent.com/saramff/face-recognition-images/refs/heads/master//men/man_18.jpg"">
      <p class=""person-name"">Robin</p>
    ","","","",""
"null","","html-keyboard-response","197","2.0.0","238523","qrbjgogtfr767s3","true","27","m&aumlnnlich","rechts","andere","","","null","","","","","","<div style=""font-size:60px;"">+</div>","fixation","","",""
"null","","html-keyboard-response","198","2.0.0","239541","qrbjgogtfr767s3","true","27","m&aumlnnlich","rechts","andere","","","null","","","","","","
      <img class=""person-img"" src=""https://raw.githubusercontent.com/saramff/face-recognition-images/refs/heads/master//men/man_6.jpg"">
      <p class=""person-name"">Valentin</p>
    ","","","",""
"null","","html-keyboard-response","199","2.0.0","240560","qrbjgogtfr767s3","true","27","m&aumlnnlich","rechts","andere","","","null","","","","","","<div style=""font-size:60px;"">+</div>","fixation","","",""
"null","","html-keyboard-response","200","2.0.0","241568","qrbjgogtfr767s3","true","27","m&aumlnnlich","rechts","andere","","","null","","","","","","
      <img class=""person-img"" src=""https://raw.githubusercontent.com/saramff/face-recognition-images/refs/heads/master//women/woman_30.jpg"">
      <p class=""person-name"">Kerstin</p>
    ","","","",""
"null","","html-keyboard-response","201","2.0.0","242579","qrbjgogtfr767s3","true","27","m&aumlnnlich","rechts","andere","","","null","","","","","","<div style=""font-size:60px;"">+</div>","fixation","","",""
"null","","html-keyboard-response","202","2.0.0","243583","qrbjgogtfr767s3","true","27","m&aumlnnlich","rechts","andere","","","null","","","","","","
      <img class=""person-img"" src=""https://raw.githubusercontent.com/saramff/face-recognition-images/refs/heads/master//men/man_17.jpg"">
      <p class=""person-name"">Robert</p>
    ","","","",""
"null","","html-keyboard-response","203","2.0.0","244602","qrbjgogtfr767s3","true","27","m&aumlnnlich","rechts","andere","","","null","","","","","","<div style=""font-size:60px;"">+</div>","fixation","","",""
"null","","html-keyboard-response","204","2.0.0","245612","qrbjgogtfr767s3","true","27","m&aumlnnlich","rechts","andere","","","null","","","","","","
      <img class=""person-img"" src=""https://raw.githubusercontent.com/saramff/face-recognition-images/refs/heads/master//men/man_27.jpg"">
      <p class=""person-name"">Udo</p>
    ","","","",""
"null","","html-keyboard-response","205","2.0.0","246636","qrbjgogtfr767s3","true","27","m&aumlnnlich","rechts","andere","","","null","","","","","","<div style=""font-size:60px;"">+</div>","fixation","","",""
"null","","html-keyboard-response","206","2.0.0","247642","qrbjgogtfr767s3","true","27","m&aumlnnlich","rechts","andere","","","null","","","","","","
      <img class=""person-img"" src=""https://raw.githubusercontent.com/saramff/face-recognition-images/refs/heads/master//men/man_39.jpg"">
      <p class=""person-name"">Konstantin</p>
    ","","","",""
"null","","html-keyboard-response","207","2.0.0","248657","qrbjgogtfr767s3","true","27","m&aumlnnlich","rechts","andere","","","null","","","","","","<div style=""font-size:60px;"">+</div>","fixation","","",""
"null","","html-keyboard-response","208","2.0.0","249662","qrbjgogtfr767s3","true","27","m&aumlnnlich","rechts","andere","","","null","","","","","","
      <img class=""person-img"" src=""https://raw.githubusercontent.com/saramff/face-recognition-images/refs/heads/master//women/woman_1.jpg"">
      <p class=""person-name"">Finja</p>
    ","","","",""
"null","","html-keyboard-response","209","2.0.0","250685","qrbjgogtfr767s3","true","27","m&aumlnnlich","rechts","andere","","","null","","","","","","<div style=""font-size:60px;"">+</div>","fixation","","",""
"null","","html-keyboard-response","210","2.0.0","251691","qrbjgogtfr767s3","true","27","m&aumlnnlich","rechts","andere","","","null","","","","","","
      <img class=""person-img"" src=""https://raw.githubusercontent.com/saramff/face-recognition-images/refs/heads/master//men/man_76.jpg"">
      <p class=""person-name"">Markus</p>
    ","","","",""
"null","","html-keyboard-response","211","2.0.0","252697","qrbjgogtfr767s3","true","27","m&aumlnnlich","rechts","andere","","","null","","","","","","<div style=""font-size:60px;"">+</div>","fixation","","",""
"null","","html-keyboard-response","212","2.0.0","253700","qrbjgogtfr767s3","true","27","m&aumlnnlich","rechts","andere","","","null","","","","","","
      <img class=""person-img"" src=""https://raw.githubusercontent.com/saramff/face-recognition-images/refs/heads/master//men/man_2.jpg"">
      <p class=""person-name"">Kilian</p>
    ","","","",""
"null","","html-keyboard-response","213","2.0.0","254712","qrbjgogtfr767s3","true","27","m&aumlnnlich","rechts","andere","","","null","","","","","","<div style=""font-size:60px;"">+</div>","fixation","","",""
"null","","html-keyboard-response","214","2.0.0","255730","qrbjgogtfr767s3","true","27","m&aumlnnlich","rechts","andere","","","null","","","","","","
      <img class=""person-img"" src=""https://raw.githubusercontent.com/saramff/face-recognition-images/refs/heads/master//men/man_94.jpg"">
      <p class=""person-name"">Simon</p>
    ","","","",""
"null","","html-keyboard-response","215","2.0.0","256739","qrbjgogtfr767s3","true","27","m&aumlnnlich","rechts","andere","","","null","","","","","","<div style=""font-size:60px;"">+</div>","fixation","","",""
"null","","html-keyboard-response","216","2.0.0","257742","qrbjgogtfr767s3","true","27","m&aumlnnlich","rechts","andere","","","null","","","","","","
      <img class=""person-img"" src=""https://raw.githubusercontent.com/saramff/face-recognition-images/refs/heads/master//men/man_3.jpg"">
      <p class=""person-name"">Artur</p>
    ","","","",""
"null","","html-keyboard-response","217","2.0.0","258753","qrbjgogtfr767s3","true","27","m&aumlnnlich","rechts","andere","","","null","","","","","","<div style=""font-size:60px;"">+</div>","fixation","","",""
"null","","html-keyboard-response","218","2.0.0","259768","qrbjgogtfr767s3","true","27","m&aumlnnlich","rechts","andere","","","null","","","","","","
      <img class=""person-img"" src=""https://raw.githubusercontent.com/saramff/face-recognition-images/refs/heads/master//men/man_4.jpg"">
      <p class=""person-name"">Karl</p>
    ","","","",""
"null","","html-keyboard-response","219","2.0.0","260809","qrbjgogtfr767s3","true","27","m&aumlnnlich","rechts","andere","","","null","","","","","","<div style=""font-size:60px;"">+</div>","fixation","","",""
"null","","html-keyboard-response","220","2.0.0","261814","qrbjgogtfr767s3","true","27","m&aumlnnlich","rechts","andere","","","null","","","","","","
      <img class=""person-img"" src=""https://raw.githubusercontent.com/saramff/face-recognition-images/refs/heads/master//women/woman_81.jpg"">
      <p class=""person-name"">Nicole</p>
    ","","","",""
"null","","html-keyboard-response","221","2.0.0","262834","qrbjgogtfr767s3","true","27","m&aumlnnlich","rechts","andere","","","null","","","","","","<div style=""font-size:60px;"">+</div>","fixation","","",""
"null","","html-keyboard-response","222","2.0.0","263852","qrbjgogtfr767s3","true","27","m&aumlnnlich","rechts","andere","","","null","","","","","","
      <img class=""person-img"" src=""https://raw.githubusercontent.com/saramff/face-recognition-images/refs/heads/master//women/woman_58.jpg"">
      <p class=""person-name"">Ariane</p>
    ","","","",""
"null","","html-keyboard-response","223","2.0.0","264880","qrbjgogtfr767s3","true","27","m&aumlnnlich","rechts","andere","","","null","","","","","","<div style=""font-size:60px;"">+</div>","fixation","","",""
"null","","html-keyboard-response","224","2.0.0","265893","qrbjgogtfr767s3","true","27","m&aumlnnlich","rechts","andere","","","null","","","","","","
      <img class=""person-img"" src=""https://raw.githubusercontent.com/saramff/face-recognition-images/refs/heads/master//men/man_10.jpg"">
      <p class=""person-name"">Friedrich</p>
    ","","","",""
"null","","html-keyboard-response","225","2.0.0","266896","qrbjgogtfr767s3","true","27","m&aumlnnlich","rechts","andere","","","null","","","","","","<div style=""font-size:60px;"">+</div>","fixation","","",""
"null","","html-keyboard-response","226","2.0.0","267913","qrbjgogtfr767s3","true","27","m&aumlnnlich","rechts","andere","","","null","","","","","","
      <img class=""person-img"" src=""https://raw.githubusercontent.com/saramff/face-recognition-images/refs/heads/master//women/woman_22.jpg"">
      <p class=""person-name"">Lucie</p>
    ","","","",""
"null","","html-keyboard-response","227","2.0.0","268943","qrbjgogtfr767s3","true","27","m&aumlnnlich","rechts","andere","","","null","","","","","","<div style=""font-size:60px;"">+</div>","fixation","","",""
"null","","html-keyboard-response","228","2.0.0","269954","qrbjgogtfr767s3","true","27","m&aumlnnlich","rechts","andere","","","null","","","","","","
      <img class=""person-img"" src=""https://raw.githubusercontent.com/saramff/face-recognition-images/refs/heads/master//women/woman_73.jpg"">
      <p class=""person-name"">Julia</p>
    ","","","",""
"null","","html-keyboard-response","229","2.0.0","270969","qrbjgogtfr767s3","true","27","m&aumlnnlich","rechts","andere","","","null","","","","","","<div style=""font-size:60px;"">+</div>","fixation","","",""
"null","","html-keyboard-response","230","2.0.0","271971","qrbjgogtfr767s3","true","27","m&aumlnnlich","rechts","andere","","","null","","","","","","
      <img class=""person-img"" src=""https://raw.githubusercontent.com/saramff/face-recognition-images/refs/heads/master//men/man_88.jpg"">
      <p class=""person-name"">Daniel</p>
    ","","","",""
"null","","html-keyboard-response","231","2.0.0","273015","qrbjgogtfr767s3","true","27","m&aumlnnlich","rechts","andere","","","null","","","","","","<div style=""font-size:60px;"">+</div>","fixation","","",""
"null","","html-keyboard-response","232","2.0.0","274028","qrbjgogtfr767s3","true","27","m&aumlnnlich","rechts","andere","","","null","","","","","","
      <img class=""person-img"" src=""https://raw.githubusercontent.com/saramff/face-recognition-images/refs/heads/master//women/woman_16.jpg"">
      <p class=""person-name"">Laura</p>
    ","","","",""
"null","","html-keyboard-response","233","2.0.0","275043","qrbjgogtfr767s3","true","27","m&aumlnnlich","rechts","andere","","","null","","","","","","<div style=""font-size:60px;"">+</div>","fixation","","",""
"null","","html-keyboard-response","234","2.0.0","276051","qrbjgogtfr767s3","true","27","m&aumlnnlich","rechts","andere","","","null","","","","","","
      <img class=""person-img"" src=""https://raw.githubusercontent.com/saramff/face-recognition-images/refs/heads/master//women/woman_8.jpg"">
      <p class=""person-name"">Ida</p>
    ","","","",""
"null","","html-keyboard-response","235","2.0.0","277072","qrbjgogtfr767s3","true","27","m&aumlnnlich","rechts","andere","","","null","","","","","","<div style=""font-size:60px;"">+</div>","fixation","","",""
"null","","html-keyboard-response","236","2.0.0","278087","qrbjgogtfr767s3","true","27","m&aumlnnlich","rechts","andere","","","null","","","","","","
      <img class=""person-img"" src=""https://raw.githubusercontent.com/saramff/face-recognition-images/refs/heads/master//women/woman_80.jpg"">
      <p class=""person-name"">Louisa</p>
    ","","","",""
"null","","html-keyboard-response","237","2.0.0","279123","qrbjgogtfr767s3","true","27","m&aumlnnlich","rechts","andere","","","null","","","","","","<div style=""font-size:60px;"">+</div>","fixation","","",""
"null","","html-keyboard-response","238","2.0.0","280129","qrbjgogtfr767s3","true","27","m&aumlnnlich","rechts","andere","","","null","","","","","","
      <img class=""person-img"" src=""https://raw.githubusercontent.com/saramff/face-recognition-images/refs/heads/master//women/woman_15.jpg"">
      <p class=""person-name"">Sophia</p>
    ","","","",""
"null","","html-keyboard-response","239","2.0.0","281152","qrbjgogtfr767s3","true","27","m&aumlnnlich","rechts","andere","","","null","","","","","","<div style=""font-size:60px;"">+</div>","fixation","","",""
"null","","html-keyboard-response","240","2.0.0","282155","qrbjgogtfr767s3","true","27","m&aumlnnlich","rechts","andere","","","null","","","","","","
      <img class=""person-img"" src=""https://raw.githubusercontent.com/saramff/face-recognition-images/refs/heads/master//women/woman_60.jpg"">
      <p class=""person-name"">Alina</p>
    ","","","",""
"null","","html-keyboard-response","241","2.0.0","283170","qrbjgogtfr767s3","true","27","m&aumlnnlich","rechts","andere","","","null","","","","","","<div style=""font-size:60px;"">+</div>","fixation","","",""
"null","","html-keyboard-response","242","2.0.0","284181","qrbjgogtfr767s3","true","27","m&aumlnnlich","rechts","andere","","","null","","","","","","
      <img class=""person-img"" src=""https://raw.githubusercontent.com/saramff/face-recognition-images/refs/heads/master//women/woman_23.jpg"">
      <p class=""person-name"">Malou</p>
    ","","","",""
"null","","html-keyboard-response","243","2.0.0","285223","qrbjgogtfr767s3","true","27","m&aumlnnlich","rechts","andere","","","null","","","","","","<div style=""font-size:60px;"">+</div>","fixation","","",""
"null","","html-keyboard-response","244","2.0.0","286235","qrbjgogtfr767s3","true","27","m&aumlnnlich","rechts","andere","","","null","","","","","","
      <img class=""person-img"" src=""https://raw.githubusercontent.com/saramff/face-recognition-images/refs/heads/master//women/woman_52.jpg"">
      <p class=""person-name"">Alma</p>
    ","","","",""
"null","","html-keyboard-response","245","2.0.0","287246","qrbjgogtfr767s3","true","27","m&aumlnnlich","rechts","andere","","","null","","","","","","<div style=""font-size:60px;"">+</div>","fixation","","",""
"null","","html-keyboard-response","246","2.0.0","288254","qrbjgogtfr767s3","true","27","m&aumlnnlich","rechts","andere","","","null","","","","","","
      <img class=""person-img"" src=""https://raw.githubusercontent.com/saramff/face-recognition-images/refs/heads/master//men/man_62.jpg"">
      <p class=""person-name"">Moritz</p>
    ","","","",""
"null","","html-keyboard-response","247","2.0.0","289269","qrbjgogtfr767s3","true","27","m&aumlnnlich","rechts","andere","","","null","","","","","","<div style=""font-size:60px;"">+</div>","fixation","","",""
"null","","html-keyboard-response","248","2.0.0","290274","qrbjgogtfr767s3","true","27","m&aumlnnlich","rechts","andere","","","null","","","","","","
      <img class=""person-img"" src=""https://raw.githubusercontent.com/saramff/face-recognition-images/refs/heads/master//men/man_13.jpg"">
      <p class=""person-name"">Ben</p>
    ","","","",""
"null","","html-keyboard-response","249","2.0.0","291292","qrbjgogtfr767s3","true","27","m&aumlnnlich","rechts","andere","","","null","","","","","","<div style=""font-size:60px;"">+</div>","fixation","","",""
"null","","html-keyboard-response","250","2.0.0","292303","qrbjgogtfr767s3","true","27","m&aumlnnlich","rechts","andere","","","null","","","","","","
      <img class=""person-img"" src=""https://raw.githubusercontent.com/saramff/face-recognition-images/refs/heads/master//women/woman_46.jpg"">
      <p class=""person-name"">Aurelia</p>
    ","","","",""
"null","","html-keyboard-response","251","2.0.0","293334","qrbjgogtfr767s3","true","27","m&aumlnnlich","rechts","andere","","","null","","","","","","<div style=""font-size:60px;"">+</div>","fixation","","",""
"null","","html-keyboard-response","252","2.0.0","294350","qrbjgogtfr767s3","true","27","m&aumlnnlich","rechts","andere","","","null","","","","","","
      <img class=""person-img"" src=""https://raw.githubusercontent.com/saramff/face-recognition-images/refs/heads/master//men/man_44.jpg"">
      <p class=""person-name"">Johannes</p>
    ","","","",""
"null","","html-keyboard-response","253","2.0.0","295365","qrbjgogtfr767s3","true","27","m&aumlnnlich","rechts","andere","","","null","","","","","","<div style=""font-size:60px;"">+</div>","fixation","","",""
"null","","html-keyboard-response","254","2.0.0","296378","qrbjgogtfr767s3","true","27","m&aumlnnlich","rechts","andere","","","null","","","","","","
      <img class=""person-img"" src=""https://raw.githubusercontent.com/saramff/face-recognition-images/refs/heads/master//women/woman_43.jpg"">
      <p class=""person-name"">Carina</p>
    ","","","",""
"null","","html-keyboard-response","255","2.0.0","297382","qrbjgogtfr767s3","true","27","m&aumlnnlich","rechts","andere","","","null","","","","","","<div style=""font-size:60px;"">+</div>","fixation","","",""
"null","","html-keyboard-response","256","2.0.0","298392","qrbjgogtfr767s3","true","27","m&aumlnnlich","rechts","andere","","","null","","","","","","
      <img class=""person-img"" src=""https://raw.githubusercontent.com/saramff/face-recognition-images/refs/heads/master//men/man_86.jpg"">
      <p class=""person-name"">Paul</p>
    ","","","",""
"null","","html-keyboard-response","257","2.0.0","299434","qrbjgogtfr767s3","true","27","m&aumlnnlich","rechts","andere","","","null","","","","","","<div style=""font-size:60px;"">+</div>","fixation","","",""
"null","","html-keyboard-response","258","2.0.0","300450","qrbjgogtfr767s3","true","27","m&aumlnnlich","rechts","andere","","","null","","","","","","
      <img class=""person-img"" src=""https://raw.githubusercontent.com/saramff/face-recognition-images/refs/heads/master//men/man_38.jpg"">
      <p class=""person-name"">Eugen</p>
    ","","","",""
"null","","html-keyboard-response","259","2.0.0","301456","qrbjgogtfr767s3","true","27","m&aumlnnlich","rechts","andere","","","null","","","","","","<div style=""font-size:60px;"">+</div>","fixation","","",""
"null","","html-keyboard-response","260","2.0.0","302459","qrbjgogtfr767s3","true","27","m&aumlnnlich","rechts","andere","","","null","","","","","","
      <img class=""person-img"" src=""https://raw.githubusercontent.com/saramff/face-recognition-images/refs/heads/master//men/man_41.jpg"">
      <p class=""person-name"">Oskar</p>
    ","","","",""
"null","","html-keyboard-response","261","2.0.0","303474","qrbjgogtfr767s3","true","27","m&aumlnnlich","rechts","andere","","","null","","","","","","<div style=""font-size:60px;"">+</div>","fixation","","",""
"null","","html-keyboard-response","262","2.0.0","304481","qrbjgogtfr767s3","true","27","m&aumlnnlich","rechts","andere","","","null","","","","","","
      <img class=""person-img"" src=""https://raw.githubusercontent.com/saramff/face-recognition-images/refs/heads/master//women/woman_85.jpg"">
      <p class=""person-name"">Paulina</p>
    ","","","",""
"null","","html-keyboard-response","263","2.0.0","305486","qrbjgogtfr767s3","true","27","m&aumlnnlich","rechts","andere","","","null","","","","","","<div style=""font-size:60px;"">+</div>","fixation","","",""
"null","","html-keyboard-response","264","2.0.0","306492","qrbjgogtfr767s3","true","27","m&aumlnnlich","rechts","andere","","","null","","","","","","
      <img class=""person-img"" src=""https://raw.githubusercontent.com/saramff/face-recognition-images/refs/heads/master//men/man_89.jpg"">
      <p class=""person-name"">Bruno</p>
    ","","","",""
"null","","html-keyboard-response","265","2.0.0","307530","qrbjgogtfr767s3","true","27","m&aumlnnlich","rechts","andere","","","null","","","","","","<div style=""font-size:60px;"">+</div>","fixation","","",""
"null","","html-keyboard-response","266","2.0.0","308543","qrbjgogtfr767s3","true","27","m&aumlnnlich","rechts","andere","","","null","","","","","","
      <img class=""person-img"" src=""https://raw.githubusercontent.com/saramff/face-recognition-images/refs/heads/master//women/woman_71.jpg"">
      <p class=""person-name"">Sabrina</p>
    ","","","",""
"null","","html-keyboard-response","267","2.0.0","309558","qrbjgogtfr767s3","true","27","m&aumlnnlich","rechts","andere","","","null","","","","","","<div style=""font-size:60px;"">+</div>","fixation","","",""
"null","","html-keyboard-response","268","2.0.0","310576","qrbjgogtfr767s3","true","27","m&aumlnnlich","rechts","andere","","","null","","","","","","
      <img class=""person-img"" src=""https://raw.githubusercontent.com/saramff/face-recognition-images/refs/heads/master//men/man_46.jpg"">
      <p class=""person-name"">Marius</p>
    ","","","",""
"null","","html-keyboard-response","269","2.0.0","311595","qrbjgogtfr767s3","true","27","m&aumlnnlich","rechts","andere","","","null","","","","","","<div style=""font-size:60px;"">+</div>","fixation","","",""
"null","","html-keyboard-response","270","2.0.0","312612","qrbjgogtfr767s3","true","27","m&aumlnnlich","rechts","andere","","","null","","","","","","
      <img class=""person-img"" src=""https://raw.githubusercontent.com/saramff/face-recognition-images/refs/heads/master//men/man_93.jpg"">
      <p class=""person-name"">Ulrich</p>
    ","","","",""
"null","","html-keyboard-response","271","2.0.0","313622","qrbjgogtfr767s3","true","27","m&aumlnnlich","rechts","andere","","","null","","","","","","<div style=""font-size:60px;"">+</div>","fixation","","",""
"null","","html-keyboard-response","272","2.0.0","314626","qrbjgogtfr767s3","true","27","m&aumlnnlich","rechts","andere","","","null","","","","","","
      <img class=""person-img"" src=""https://raw.githubusercontent.com/saramff/face-recognition-images/refs/heads/master//women/woman_87.jpg"">
      <p class=""person-name"">Yara</p>
    ","","","",""
"null","","html-keyboard-response","273","2.0.0","315643","qrbjgogtfr767s3","true","27","m&aumlnnlich","rechts","andere","","","null","","","","","","<div style=""font-size:60px;"">+</div>","fixation","","",""
"null","","html-keyboard-response","274","2.0.0","316660","qrbjgogtfr767s3","true","27","m&aumlnnlich","rechts","andere","","","null","","","","","","
      <img class=""person-img"" src=""https://raw.githubusercontent.com/saramff/face-recognition-images/refs/heads/master//women/woman_34.jpg"">
      <p class=""person-name"">Fiona</p>
    ","","","",""
"null","","html-keyboard-response","275","2.0.0","317665","qrbjgogtfr767s3","true","27","m&aumlnnlich","rechts","andere","","","null","","","","","","<div style=""font-size:60px;"">+</div>","fixation","","",""
"null","","html-keyboard-response","276","2.0.0","318672","qrbjgogtfr767s3","true","27","m&aumlnnlich","rechts","andere","","","null","","","","","","
      <img class=""person-img"" src=""https://raw.githubusercontent.com/saramff/face-recognition-images/refs/heads/master//women/woman_49.jpg"">
      <p class=""person-name"">Olivia</p>
    ","","","",""
"null","","html-keyboard-response","277","2.0.0","319692","qrbjgogtfr767s3","true","27","m&aumlnnlich","rechts","andere","","","null","","","","","","<div style=""font-size:60px;"">+</div>","fixation","","",""
"null","","html-keyboard-response","278","2.0.0","320707","qrbjgogtfr767s3","true","27","m&aumlnnlich","rechts","andere","","","null","","","","","","
      <img class=""person-img"" src=""https://raw.githubusercontent.com/saramff/face-recognition-images/refs/heads/master//men/man_49.jpg"">
      <p class=""person-name"">Lukas</p>
    ","","","",""
"null","","html-keyboard-response","279","2.0.0","321713","qrbjgogtfr767s3","true","27","m&aumlnnlich","rechts","andere","","","null","","","","","","<div style=""font-size:60px;"">+</div>","fixation","","",""
"null","","html-keyboard-response","280","2.0.0","322727","qrbjgogtfr767s3","true","27","m&aumlnnlich","rechts","andere","","","null","","","","","","
      <img class=""person-img"" src=""https://raw.githubusercontent.com/saramff/face-recognition-images/refs/heads/master//women/woman_57.jpg"">
      <p class=""person-name"">Isabel</p>
    ","","","",""
"null","","html-keyboard-response","281","2.0.0","323751","qrbjgogtfr767s3","true","27","m&aumlnnlich","rechts","andere","","","null","","","","","","<div style=""font-size:60px;"">+</div>","fixation","","",""
"null","","html-keyboard-response","282","2.0.0","324759","qrbjgogtfr767s3","true","27","m&aumlnnlich","rechts","andere","","","null","","","","","","
      <img class=""person-img"" src=""https://raw.githubusercontent.com/saramff/face-recognition-images/refs/heads/master//women/woman_79.jpg"">
      <p class=""person-name"">Zoe</p>
    ","","","",""
"null","","html-keyboard-response","283","2.0.0","325775","qrbjgogtfr767s3","true","27","m&aumlnnlich","rechts","andere","","","null","","","","","","<div style=""font-size:60px;"">+</div>","fixation","","",""
"null","","html-keyboard-response","284","2.0.0","326789","qrbjgogtfr767s3","true","27","m&aumlnnlich","rechts","andere","","","null","","","","","","
      <img class=""person-img"" src=""https://raw.githubusercontent.com/saramff/face-recognition-images/refs/heads/master//women/woman_78.jpg"">
      <p class=""person-name"">Sarah</p>
    ","","","",""
"null","","html-keyboard-response","285","2.0.0","327804","qrbjgogtfr767s3","true","27","m&aumlnnlich","rechts","andere","","","null","","","","","","<div style=""font-size:60px;"">+</div>","fixation","","",""
"null","","html-keyboard-response","286","2.0.0","328821","qrbjgogtfr767s3","true","27","m&aumlnnlich","rechts","andere","","","null","","","","","","
      <img class=""person-img"" src=""https://raw.githubusercontent.com/saramff/face-recognition-images/refs/heads/master//women/woman_21.jpg"">
      <p class=""person-name"">Marta</p>
    ","","","",""
"null","","html-keyboard-response","287","2.0.0","329857","qrbjgogtfr767s3","true","27","m&aumlnnlich","rechts","andere","","","null","","","","","","<div style=""font-size:60px;"">+</div>","fixation","","",""
"null","","html-keyboard-response","288","2.0.0","330866","qrbjgogtfr767s3","true","27","m&aumlnnlich","rechts","andere","","","null","","","","","","
      <img class=""person-img"" src=""https://raw.githubusercontent.com/saramff/face-recognition-images/refs/heads/master//women/woman_61.jpg"">
      <p class=""person-name"">Annika</p>
    ","","","",""
"null","","html-keyboard-response","289","2.0.0","331880","qrbjgogtfr767s3","true","27","m&aumlnnlich","rechts","andere","","","null","","","","","","<div style=""font-size:60px;"">+</div>","fixation","","",""
"null","","html-keyboard-response","290","2.0.0","332885","qrbjgogtfr767s3","true","27","m&aumlnnlich","rechts","andere","","","null","","","","","","
      <img class=""person-img"" src=""https://raw.githubusercontent.com/saramff/face-recognition-images/refs/heads/master//women/woman_40.jpg"">
      <p class=""person-name"">Amira</p>
    ","","","",""
"null","","html-keyboard-response","291","2.0.0","333891","qrbjgogtfr767s3","true","27","m&aumlnnlich","rechts","andere","","","null","","","","","","<div style=""font-size:60px;"">+</div>","fixation","","",""
"null","","html-keyboard-response","292","2.0.0","334909","qrbjgogtfr767s3","true","27","m&aumlnnlich","rechts","andere","","","null","","","","","","
      <img class=""person-img"" src=""https://raw.githubusercontent.com/saramff/face-recognition-images/refs/heads/master//women/woman_69.jpg"">
      <p class=""person-name"">Fabienne</p>
    ","","","",""
"null","","html-keyboard-response","293","2.0.0","335931","qrbjgogtfr767s3","true","27","m&aumlnnlich","rechts","andere","","","null","","","","","","<div style=""font-size:60px;"">+</div>","fixation","","",""
"null","","html-keyboard-response","294","2.0.0","336947","qrbjgogtfr767s3","true","27","m&aumlnnlich","rechts","andere","","","null","","","","","","
      <img class=""person-img"" src=""https://raw.githubusercontent.com/saramff/face-recognition-images/refs/heads/master//men/man_8.jpg"">
      <p class=""person-name"">Benedikt</p>
    ","","","",""
"null","","html-keyboard-response","295","2.0.0","337960","qrbjgogtfr767s3","true","27","m&aumlnnlich","rechts","andere","","","null","","","","","","<div style=""font-size:60px;"">+</div>","fixation","","",""
"null","","html-keyboard-response","296","2.0.0","338965","qrbjgogtfr767s3","true","27","m&aumlnnlich","rechts","andere","","","null","","","","","","
      <img class=""person-img"" src=""https://raw.githubusercontent.com/saramff/face-recognition-images/refs/heads/master//men/man_33.jpg"">
      <p class=""person-name"">Andreas</p>
    ","","","",""
"null","","html-keyboard-response","297","2.0.0","339998","qrbjgogtfr767s3","true","27","m&aumlnnlich","rechts","andere","","","null","","","","","","<div style=""font-size:60px;"">+</div>","fixation","","",""
"null","","html-keyboard-response","298","2.0.0","341018","qrbjgogtfr767s3","true","27","m&aumlnnlich","rechts","andere","","","null","","","","","","
      <img class=""person-img"" src=""https://raw.githubusercontent.com/saramff/face-recognition-images/refs/heads/master//men/man_69.jpg"">
      <p class=""person-name"">Martin</p>
    ","","","",""
"null","","html-keyboard-response","299","2.0.0","342025","qrbjgogtfr767s3","true","27","m&aumlnnlich","rechts","andere","","","null","","","","","","<div style=""font-size:60px;"">+</div>","fixation","","",""
"null","","html-keyboard-response","300","2.0.0","343040","qrbjgogtfr767s3","true","27","m&aumlnnlich","rechts","andere","","","null","","","","","","
      <img class=""person-img"" src=""https://raw.githubusercontent.com/saramff/face-recognition-images/refs/heads/master//men/man_9.jpg"">
      <p class=""person-name"">Jakob</p>
    ","","","",""
"null","","html-keyboard-response","301","2.0.0","344057","qrbjgogtfr767s3","true","27","m&aumlnnlich","rechts","andere","","","null","","","","","","<div style=""font-size:60px;"">+</div>","fixation","","",""
"null","","html-keyboard-response","302","2.0.0","345063","qrbjgogtfr767s3","true","27","m&aumlnnlich","rechts","andere","","","null","","","","","","
      <img class=""person-img"" src=""https://raw.githubusercontent.com/saramff/face-recognition-images/refs/heads/master//men/man_19.jpg"">
      <p class=""person-name"">Jochen</p>
    ","","","",""
"null","","html-keyboard-response","303","2.0.0","346079","qrbjgogtfr767s3","true","27","m&aumlnnlich","rechts","andere","","","null","","","","","","<div style=""font-size:60px;"">+</div>","fixation","","",""
"null","","html-keyboard-response","304","2.0.0","347096","qrbjgogtfr767s3","true","27","m&aumlnnlich","rechts","andere","","","null","","","","","","
      <img class=""person-img"" src=""https://raw.githubusercontent.com/saramff/face-recognition-images/refs/heads/master//women/woman_83.jpg"">
      <p class=""person-name"">Liana</p>
    ","","","",""
"null","","html-keyboard-response","305","2.0.0","348115","qrbjgogtfr767s3","true","27","m&aumlnnlich","rechts","andere","","","null","","","","","","<div style=""font-size:60px;"">+</div>","fixation","","",""
"null","","html-keyboard-response","306","2.0.0","349119","qrbjgogtfr767s3","true","27","m&aumlnnlich","rechts","andere","","","null","","","","","","
      <img class=""person-img"" src=""https://raw.githubusercontent.com/saramff/face-recognition-images/refs/heads/master//women/woman_74.jpg"">
      <p class=""person-name"">Bianca</p>
    ","","","",""
"null","","html-keyboard-response","307","2.0.0","350128","qrbjgogtfr767s3","true","27","m&aumlnnlich","rechts","andere","","","null","","","","","","<div style=""font-size:60px;"">+</div>","fixation","","",""
"null","","html-keyboard-response","308","2.0.0","351140","qrbjgogtfr767s3","true","27","m&aumlnnlich","rechts","andere","","","null","","","","","","
      <img class=""person-img"" src=""https://raw.githubusercontent.com/saramff/face-recognition-images/refs/heads/master//women/woman_86.jpg"">
      <p class=""person-name"">Anja</p>
    ","","","",""
"null","","html-keyboard-response","309","2.0.0","352154","qrbjgogtfr767s3","true","27","m&aumlnnlich","rechts","andere","","","null","","","","","","<div style=""font-size:60px;"">+</div>","fixation","","",""
"null","","html-keyboard-response","310","2.0.0","353158","qrbjgogtfr767s3","true","27","m&aumlnnlich","rechts","andere","","","null","","","","","","
      <img class=""person-img"" src=""https://raw.githubusercontent.com/saramff/face-recognition-images/refs/heads/master//men/man_75.jpg"">
      <p class=""person-name"">Guido</p>
    ","","","",""
"null","","html-keyboard-response","311","2.0.0","354165","qrbjgogtfr767s3","true","27","m&aumlnnlich","rechts","andere","","","null","","","","","","<div style=""font-size:60px;"">+</div>","fixation","","",""
"null","","html-keyboard-response","312","2.0.0","355183","qrbjgogtfr767s3","true","27","m&aumlnnlich","rechts","andere","","","null","","","","","","
      <img class=""person-img"" src=""https://raw.githubusercontent.com/saramff/face-recognition-images/refs/heads/master//women/woman_39.jpg"">
      <p class=""person-name"">Frieda</p>
    ","","","",""
"null","","html-keyboard-response","313","2.0.0","356219","qrbjgogtfr767s3","true","27","m&aumlnnlich","rechts","andere","","","null","","","","","","<div style=""font-size:60px;"">+</div>","fixation","","",""
"null","","html-keyboard-response","314","2.0.0","357228","qrbjgogtfr767s3","true","27","m&aumlnnlich","rechts","andere","","","null","","","","","","
      <img class=""person-img"" src=""https://raw.githubusercontent.com/saramff/face-recognition-images/refs/heads/master//women/woman_5.jpg"">
      <p class=""person-name"">Marla</p>
    ","","","",""
"null","","html-keyboard-response","315","2.0.0","358256","qrbjgogtfr767s3","true","27","m&aumlnnlich","rechts","andere","","","null","","","","","","<div style=""font-size:60px;"">+</div>","fixation","","",""
"null","","html-keyboard-response","316","2.0.0","359273","qrbjgogtfr767s3","true","27","m&aumlnnlich","rechts","andere","","","null","","","","","","
      <img class=""person-img"" src=""https://raw.githubusercontent.com/saramff/face-recognition-images/refs/heads/master//women/woman_33.jpg"">
      <p class=""person-name"">Marlene</p>
    ","","","",""
"null","","html-keyboard-response","317","2.0.0","360289","qrbjgogtfr767s3","true","27","m&aumlnnlich","rechts","andere","","","null","","","","","","<div style=""font-size:60px;"">+</div>","fixation","","",""
"null","","html-keyboard-response","318","2.0.0","361306","qrbjgogtfr767s3","true","27","m&aumlnnlich","rechts","andere","","","null","","","","","","
      <img class=""person-img"" src=""https://raw.githubusercontent.com/saramff/face-recognition-images/refs/heads/master//men/man_56.jpg"">
      <p class=""person-name"">Thomas</p>
    ","","","",""
"null","","html-keyboard-response","319","2.0.0","362311","qrbjgogtfr767s3","true","27","m&aumlnnlich","rechts","andere","","","null","","","","","","<div style=""font-size:60px;"">+</div>","fixation","","",""
"null","","html-keyboard-response","320","2.0.0","363325","qrbjgogtfr767s3","true","27","m&aumlnnlich","rechts","andere","","","null","","","","","","
      <img class=""person-img"" src=""https://raw.githubusercontent.com/saramff/face-recognition-images/refs/heads/master//men/man_16.jpg"">
      <p class=""person-name"">Joel</p>
    ","","","",""
"null","","html-keyboard-response","321","2.0.0","364337","qrbjgogtfr767s3","true","27","m&aumlnnlich","rechts","andere","","","null","","","","","","<div style=""font-size:60px;"">+</div>","fixation","","",""
"null","","html-keyboard-response","322","2.0.0","365353","qrbjgogtfr767s3","true","27","m&aumlnnlich","rechts","andere","","","null","","","","","","
      <img class=""person-img"" src=""https://raw.githubusercontent.com/saramff/face-recognition-images/refs/heads/master//women/woman_65.jpg"">
      <p class=""person-name"">Annie</p>
    ","","","",""
"null","","html-keyboard-response","323","2.0.0","366362","qrbjgogtfr767s3","true","27","m&aumlnnlich","rechts","andere","","","null","","","","","","<div style=""font-size:60px;"">+</div>","fixation","","",""
"null","","html-keyboard-response","324","2.0.0","367364","qrbjgogtfr767s3","true","27","m&aumlnnlich","rechts","andere","","","null","","","","","","
      <img class=""person-img"" src=""https://raw.githubusercontent.com/saramff/face-recognition-images/refs/heads/master//women/woman_4.jpg"">
      <p class=""person-name"">Ella</p>
    ","","","",""
"null","","html-keyboard-response","325","2.0.0","368373","qrbjgogtfr767s3","true","27","m&aumlnnlich","rechts","andere","","","null","","","","","","<div style=""font-size:60px;"">+</div>","fixation","","",""
"null","","html-keyboard-response","326","2.0.0","369385","qrbjgogtfr767s3","true","27","m&aumlnnlich","rechts","andere","","","null","","","","","","
      <img class=""person-img"" src=""https://raw.githubusercontent.com/saramff/face-recognition-images/refs/heads/master//women/woman_36.jpg"">
      <p class=""person-name"">Beate</p>
    ","","","",""
"null","","html-keyboard-response","327","2.0.0","370390","qrbjgogtfr767s3","true","27","m&aumlnnlich","rechts","andere","","","null","","","","","","<div style=""font-size:60px;"">+</div>","fixation","","",""
"null","","html-keyboard-response","328","2.0.0","371403","qrbjgogtfr767s3","true","27","m&aumlnnlich","rechts","andere","","","null","","","","","","
      <img class=""person-img"" src=""https://raw.githubusercontent.com/saramff/face-recognition-images/refs/heads/master//women/woman_9.jpg"">
      <p class=""person-name"">Mathilda</p>
    ","","","",""
"null","","html-keyboard-response","329","2.0.0","372417","qrbjgogtfr767s3","true","27","m&aumlnnlich","rechts","andere","","","null","","","","","","<div style=""font-size:60px;"">+</div>","fixation","","",""
"null","","html-keyboard-response","330","2.0.0","373433","qrbjgogtfr767s3","true","27","m&aumlnnlich","rechts","andere","","","null","","","","","","
      <img class=""person-img"" src=""https://raw.githubusercontent.com/saramff/face-recognition-images/refs/heads/master//women/woman_51.jpg"">
      <p class=""person-name"">Tabea</p>
    ","","","",""
"null","","html-keyboard-response","331","2.0.0","374447","qrbjgogtfr767s3","true","27","m&aumlnnlich","rechts","andere","","","null","","","","","","<div style=""font-size:60px;"">+</div>","fixation","","",""
"null","","html-keyboard-response","332","2.0.0","375465","qrbjgogtfr767s3","true","27","m&aumlnnlich","rechts","andere","","","null","","","","","","
      <img class=""person-img"" src=""https://raw.githubusercontent.com/saramff/face-recognition-images/refs/heads/master//men/man_80.jpg"">
      <p class=""person-name"">Adrian</p>
    ","","","",""
"null","","html-keyboard-response","333","2.0.0","376475","qrbjgogtfr767s3","true","27","m&aumlnnlich","rechts","andere","","","null","","","","","","<div style=""font-size:60px;"">+</div>","fixation","","",""
"null","","html-keyboard-response","334","2.0.0","377493","qrbjgogtfr767s3","true","27","m&aumlnnlich","rechts","andere","","","null","","","","","","
      <img class=""person-img"" src=""https://raw.githubusercontent.com/saramff/face-recognition-images/refs/heads/master//women/woman_54.jpg"">
      <p class=""person-name"">Christina</p>
    ","","","",""
"null","","html-keyboard-response","335","2.0.0","378510","qrbjgogtfr767s3","true","27","m&aumlnnlich","rechts","andere","","","null","","","","","","<div style=""font-size:60px;"">+</div>","fixation","","",""
"null","","html-keyboard-response","336","2.0.0","379513","qrbjgogtfr767s3","true","27","m&aumlnnlich","rechts","andere","","","null","","","","","","
      <img class=""person-img"" src=""https://raw.githubusercontent.com/saramff/face-recognition-images/refs/heads/master//men/man_91.jpg"">
      <p class=""person-name"">Tristan</p>
    ","","","",""
"null","","html-keyboard-response","337","2.0.0","380532","qrbjgogtfr767s3","true","27","m&aumlnnlich","rechts","andere","","","null","","","","","","<div style=""font-size:60px;"">+</div>","fixation","","",""
"null","","html-keyboard-response","338","2.0.0","381536","qrbjgogtfr767s3","true","27","m&aumlnnlich","rechts","andere","","","null","","","","","","
      <img class=""person-img"" src=""https://raw.githubusercontent.com/saramff/face-recognition-images/refs/heads/master//men/man_55.jpg"">
      <p class=""person-name"">Christoph</p>
    ","","","",""
"null","","html-keyboard-response","339","2.0.0","382560","qrbjgogtfr767s3","true","27","m&aumlnnlich","rechts","andere","","","null","","","","","","<div style=""font-size:60px;"">+</div>","fixation","","",""
"null","","html-keyboard-response","340","2.0.0","383563","qrbjgogtfr767s3","true","27","m&aumlnnlich","rechts","andere","","","null","","","","","","
      <img class=""person-img"" src=""https://raw.githubusercontent.com/saramff/face-recognition-images/refs/heads/master//men/man_54.jpg"">
      <p class=""person-name"">Florian</p>
    ","","","",""
"null","","html-keyboard-response","341","2.0.0","384579","qrbjgogtfr767s3","true","27","m&aumlnnlich","rechts","andere","","","null","","","","","","<div style=""font-size:60px;"">+</div>","fixation","","",""
"null","","html-keyboard-response","342","2.0.0","385589","qrbjgogtfr767s3","true","27","m&aumlnnlich","rechts","andere","","","null","","","","","","
      <img class=""person-img"" src=""https://raw.githubusercontent.com/saramff/face-recognition-images/refs/heads/master//men/man_53.jpg"">
      <p class=""person-name"">Frank</p>
    ","","","",""
"null","","html-keyboard-response","343","2.0.0","386596","qrbjgogtfr767s3","true","27","m&aumlnnlich","rechts","andere","","","null","","","","","","<div style=""font-size:60px;"">+</div>","fixation","","",""
"null","","html-keyboard-response","344","2.0.0","387615","qrbjgogtfr767s3","true","27","m&aumlnnlich","rechts","andere","","","null","","","","","","
      <img class=""person-img"" src=""https://raw.githubusercontent.com/saramff/face-recognition-images/refs/heads/master//men/man_51.jpg"">
      <p class=""person-name"">Tobias</p>
    ","","","",""
"null","","html-keyboard-response","345","2.0.0","388624","qrbjgogtfr767s3","true","27","m&aumlnnlich","rechts","andere","","","null","","","","","","<div style=""font-size:60px;"">+</div>","fixation","","",""
"null","","html-keyboard-response","346","2.0.0","389634","qrbjgogtfr767s3","true","27","m&aumlnnlich","rechts","andere","","","null","","","","","","
      <img class=""person-img"" src=""https://raw.githubusercontent.com/saramff/face-recognition-images/refs/heads/master//women/woman_6.jpg"">
      <p class=""person-name"">Viktoria</p>
    ","","","",""
"null","","html-keyboard-response","347","2.0.0","390657","qrbjgogtfr767s3","true","27","m&aumlnnlich","rechts","andere","","","null","","","","","","<div style=""font-size:60px;"">+</div>","fixation","","",""
"null","","html-keyboard-response","348","2.0.0","391675","qrbjgogtfr767s3","true","27","m&aumlnnlich","rechts","andere","","","null","","","","","","
      <img class=""person-img"" src=""https://raw.githubusercontent.com/saramff/face-recognition-images/refs/heads/master//women/woman_66.jpg"">
      <p class=""person-name"">Neele</p>
    ","","","",""
"null","","html-keyboard-response","349","2.0.0","392687","qrbjgogtfr767s3","true","27","m&aumlnnlich","rechts","andere","","","null","","","","","","<div style=""font-size:60px;"">+</div>","fixation","","",""
"null","","html-keyboard-response","350","2.0.0","393693","qrbjgogtfr767s3","true","27","m&aumlnnlich","rechts","andere","","","null","","","","","","
      <img class=""person-img"" src=""https://raw.githubusercontent.com/saramff/face-recognition-images/refs/heads/master//women/woman_20.jpg"">
      <p class=""person-name"">Ronja</p>
    ","","","",""
"null","","html-keyboard-response","351","2.0.0","394708","qrbjgogtfr767s3","true","27","m&aumlnnlich","rechts","andere","","","null","","","","","","<div style=""font-size:60px;"">+</div>","fixation","","",""
"null","","html-keyboard-response","352","2.0.0","395725","qrbjgogtfr767s3","true","27","m&aumlnnlich","rechts","andere","","","null","","","","","","
      <img class=""person-img"" src=""https://raw.githubusercontent.com/saramff/face-recognition-images/refs/heads/master//men/man_57.jpg"">
      <p class=""person-name"">Noah</p>
    ","","","",""
"null","","html-keyboard-response","353","2.0.0","396738","qrbjgogtfr767s3","true","27","m&aumlnnlich","rechts","andere","","","null","","","","","","<div style=""font-size:60px;"">+</div>","fixation","","",""
"null","","html-keyboard-response","354","2.0.0","397743","qrbjgogtfr767s3","true","27","m&aumlnnlich","rechts","andere","","","null","","","","","","
      <img class=""person-img"" src=""https://raw.githubusercontent.com/saramff/face-recognition-images/refs/heads/master//men/man_64.jpg"">
      <p class=""person-name"">Dominik</p>
    ","","","",""
"null","","html-keyboard-response","355","2.0.0","398755","qrbjgogtfr767s3","true","27","m&aumlnnlich","rechts","andere","","","null","","","","","","<div style=""font-size:60px;"">+</div>","fixation","","",""
