"rt","url","trial_type","trial_index","plugin_version","time_elapsed","subject","fullscreen","age","gender","handedness","language","success","type","response","question_order","timeout","failed_images","failed_audio","failed_video","stimulus","task","correct_response","correct","correct_response_meaning"
"5237","consentA2.html","external-html","0","2.0.0","5245","b3n3npffhb1n2pv","true","26","m&aumlnnlich","rechts","Deutsch","","","","","","","","","","","","",""
"1299","","fullscreen","1","2.0.0","7549","b3n3npffhb1n2pv","true","26","m&aumlnnlich","rechts","Deutsch","true","","","","","","","","","","","",""
"2677","","survey-text","2","2.0.0","10230","b3n3npffhb1n2pv","true","26","m&aumlnnlich","rechts","Deutsch","","demo","{""Q0"":""26""}","","","","","","","","","",""
"6724","","survey-multi-choice","3","2.0.0","16957","b3n3npffhb1n2pv","true","26","m&aumlnnlich","rechts","Deutsch","","","{""gender"":""m&aumlnnlich"",""handedness"":""rechts"",""language"":""Deutsch""}","[0,1,2]","","","","","","","","",""
"","","preload","4","2.0.0","23568","b3n3npffhb1n2pv","true","26","m&aumlnnlich","rechts","Deutsch","true","","","","false","[]","[]","[]","","","","",""
"","","preload","5","2.0.0","24260","b3n3npffhb1n2pv","true","26","m&aumlnnlich","rechts","Deutsch","true","","","","false","[]","[]","[]","","","","",""
"","","preload","6","2.0.0","26582","b3n3npffhb1n2pv","true","26","m&aumlnnlich","rechts","Deutsch","true","","","","false","[]","[]","[]","","","","",""
"3499","","html-keyboard-response","7","2.0.0","30083","b3n3npffhb1n2pv","true","26","m&aumlnnlich","rechts","Deutsch","","",",","","","","","","Willkommen zum Experiment. Drücken Sie eine beliebige Taste, um zu beginnen.","","","",""
"11222","","html-keyboard-response","8","2.0.0","41306","b3n3npffhb1n2pv","true","26","m&aumlnnlich","rechts","Deutsch","",""," ","","","","","","
    <p>In diesem Experiment werden nacheinander automatisch verschiedene Gesichter angezeigt.</p>
    <p>Bitte achten Sie genau auf jedes Gesicht und den dazugehörigen Namen.</p>
    <p>Die Gesichter erscheinen von selbst und Sie brauchen nichts weiter zu tun, außer aufmerksam zu sein.</p>
    <p>Drücken Sie eine beliebige Taste, um zu beginnen, wenn Sie bereit sind.</p>
  ","","","",""
"null","","html-keyboard-response","9","2.0.0","42311","b3n3npffhb1n2pv","true","26","m&aumlnnlich","rechts","Deutsch","","","null","","","","","","<div style=""font-size:60px;"">+</div>","fixation","","",""
"null","","html-keyboard-response","10","2.0.0","43315","b3n3npffhb1n2pv","true","26","m&aumlnnlich","rechts","Deutsch","","","null","","","","","","
      <img class=""person-img"" src=""https://raw.githubusercontent.com/saramff/face-recognition-images/refs/heads/master//women/woman_44.jpg"">
      <p class=""person-name"">Ronja</p>
    ","","","",""
"null","","html-keyboard-response","11","2.0.0","44319","b3n3npffhb1n2pv","true","26","m&aumlnnlich","rechts","Deutsch","","","null","","","","","","<div style=""font-size:60px;"">+</div>","fixation","","",""
"null","","html-keyboard-response","12","2.0.0","45321","b3n3npffhb1n2pv","true","26","m&aumlnnlich","rechts","Deutsch","","","null","","","","","","
      <img class=""person-img"" src=""https://raw.githubusercontent.com/saramff/face-recognition-images/refs/heads/master//women/woman_60.jpg"">
      <p class=""person-name"">Neele</p>
    ","","","",""
"null","","html-keyboard-response","13","2.0.0","46325","b3n3npffhb1n2pv","true","26","m&aumlnnlich","rechts","Deutsch","","","null","","","","","","<div style=""font-size:60px;"">+</div>","fixation","","",""
"null","","html-keyboard-response","14","2.0.0","47329","b3n3npffhb1n2pv","true","26","m&aumlnnlich","rechts","Deutsch","","","null","","","","","","
      <img class=""person-img"" src=""https://raw.githubusercontent.com/saramff/face-recognition-images/refs/heads/master//men/man_76.jpg"">
      <p class=""person-name"">Frederik</p>
    ","","","",""
"null","","html-keyboard-response","15","2.0.0","48333","b3n3npffhb1n2pv","true","26","m&aumlnnlich","rechts","Deutsch","","","null","","","","","","<div style=""font-size:60px;"">+</div>","fixation","","",""
"null","","html-keyboard-response","16","2.0.0","49336","b3n3npffhb1n2pv","true","26","m&aumlnnlich","rechts","Deutsch","","","null","","","","","","
      <img class=""person-img"" src=""https://raw.githubusercontent.com/saramff/face-recognition-images/refs/heads/master//men/man_48.jpg"">
      <p class=""person-name"">Volker</p>
    ","","","",""
"null","","html-keyboard-response","17","2.0.0","50341","b3n3npffhb1n2pv","true","26","m&aumlnnlich","rechts","Deutsch","","","null","","","","","","<div style=""font-size:60px;"">+</div>","fixation","","",""
"null","","html-keyboard-response","18","2.0.0","51344","b3n3npffhb1n2pv","true","26","m&aumlnnlich","rechts","Deutsch","","","null","","","","","","
      <img class=""person-img"" src=""https://raw.githubusercontent.com/saramff/face-recognition-images/refs/heads/master//women/woman_38.jpg"">
      <p class=""person-name"">Yara</p>
    ","","","",""
"null","","html-keyboard-response","19","2.0.0","52348","b3n3npffhb1n2pv","true","26","m&aumlnnlich","rechts","Deutsch","","","null","","","","","","<div style=""font-size:60px;"">+</div>","fixation","","",""
"null","","html-keyboard-response","20","2.0.0","53352","b3n3npffhb1n2pv","true","26","m&aumlnnlich","rechts","Deutsch","","","null","","","","","","
      <img class=""person-img"" src=""https://raw.githubusercontent.com/saramff/face-recognition-images/refs/heads/master//women/woman_59.jpg"">
      <p class=""person-name"">Stella</p>
    ","","","",""
"null","","html-keyboard-response","21","2.0.0","54356","b3n3npffhb1n2pv","true","26","m&aumlnnlich","rechts","Deutsch","","","null","","","","","","<div style=""font-size:60px;"">+</div>","fixation","","",""
"null","","html-keyboard-response","22","2.0.0","55359","b3n3npffhb1n2pv","true","26","m&aumlnnlich","rechts","Deutsch","","","null","","","","","","
      <img class=""person-img"" src=""https://raw.githubusercontent.com/saramff/face-recognition-images/refs/heads/master//men/man_45.jpg"">
      <p class=""person-name"">Clemens</p>
    ","","","",""
"null","","html-keyboard-response","23","2.0.0","56362","b3n3npffhb1n2pv","true","26","m&aumlnnlich","rechts","Deutsch","","","null","","","","","","<div style=""font-size:60px;"">+</div>","fixation","","",""
"null","","html-keyboard-response","24","2.0.0","57365","b3n3npffhb1n2pv","true","26","m&aumlnnlich","rechts","Deutsch","","","null","","","","","","
      <img class=""person-img"" src=""https://raw.githubusercontent.com/saramff/face-recognition-images/refs/heads/master//men/man_4.jpg"">
      <p class=""person-name"">Joel</p>
    ","","","",""
"null","","html-keyboard-response","25","2.0.0","58368","b3n3npffhb1n2pv","true","26","m&aumlnnlich","rechts","Deutsch","","","null","","","","","","<div style=""font-size:60px;"">+</div>","fixation","","",""
"null","","html-keyboard-response","26","2.0.0","59371","b3n3npffhb1n2pv","true","26","m&aumlnnlich","rechts","Deutsch","","","null","","","","","","
      <img class=""person-img"" src=""https://raw.githubusercontent.com/saramff/face-recognition-images/refs/heads/master//women/woman_18.jpg"">
      <p class=""person-name"">Alma</p>
    ","","","",""
"null","","html-keyboard-response","27","2.0.0","60374","b3n3npffhb1n2pv","true","26","m&aumlnnlich","rechts","Deutsch","","","null","","","","","","<div style=""font-size:60px;"">+</div>","fixation","","",""
"null","","html-keyboard-response","28","2.0.0","61378","b3n3npffhb1n2pv","true","26","m&aumlnnlich","rechts","Deutsch","","","null","","","","","","
      <img class=""person-img"" src=""https://raw.githubusercontent.com/saramff/face-recognition-images/refs/heads/master//men/man_13.jpg"">
      <p class=""person-name"">Felix</p>
    ","","","",""
"null","","html-keyboard-response","29","2.0.0","62381","b3n3npffhb1n2pv","true","26","m&aumlnnlich","rechts","Deutsch","","","null","","","","","","<div style=""font-size:60px;"">+</div>","fixation","","",""
"null","","html-keyboard-response","30","2.0.0","63385","b3n3npffhb1n2pv","true","26","m&aumlnnlich","rechts","Deutsch","","","null","","","","","","
      <img class=""person-img"" src=""https://raw.githubusercontent.com/saramff/face-recognition-images/refs/heads/master//men/man_96.jpg"">
      <p class=""person-name"">Oliver</p>
    ","","","",""
"null","","html-keyboard-response","31","2.0.0","64389","b3n3npffhb1n2pv","true","26","m&aumlnnlich","rechts","Deutsch","","","null","","","","","","<div style=""font-size:60px;"">+</div>","fixation","","",""
"null","","html-keyboard-response","32","2.0.0","65392","b3n3npffhb1n2pv","true","26","m&aumlnnlich","rechts","Deutsch","","","null","","","","","","
      <img class=""person-img"" src=""https://raw.githubusercontent.com/saramff/face-recognition-images/refs/heads/master//men/man_55.jpg"">
      <p class=""person-name"">Frank</p>
    ","","","",""
"null","","html-keyboard-response","33","2.0.0","66396","b3n3npffhb1n2pv","true","26","m&aumlnnlich","rechts","Deutsch","","","null","","","","","","<div style=""font-size:60px;"">+</div>","fixation","","",""
"null","","html-keyboard-response","34","2.0.0","67399","b3n3npffhb1n2pv","true","26","m&aumlnnlich","rechts","Deutsch","","","null","","","","","","
      <img class=""person-img"" src=""https://raw.githubusercontent.com/saramff/face-recognition-images/refs/heads/master//men/man_12.jpg"">
      <p class=""person-name"">Olaf</p>
    ","","","",""
"null","","html-keyboard-response","35","2.0.0","68402","b3n3npffhb1n2pv","true","26","m&aumlnnlich","rechts","Deutsch","","","null","","","","","","<div style=""font-size:60px;"">+</div>","fixation","","",""
"null","","html-keyboard-response","36","2.0.0","69405","b3n3npffhb1n2pv","true","26","m&aumlnnlich","rechts","Deutsch","","","null","","","","","","
      <img class=""person-img"" src=""https://raw.githubusercontent.com/saramff/face-recognition-images/refs/heads/master//men/man_82.jpg"">
      <p class=""person-name"">Jonathan</p>
    ","","","",""
"null","","html-keyboard-response","37","2.0.0","70408","b3n3npffhb1n2pv","true","26","m&aumlnnlich","rechts","Deutsch","","","null","","","","","","<div style=""font-size:60px;"">+</div>","fixation","","",""
"null","","html-keyboard-response","38","2.0.0","71412","b3n3npffhb1n2pv","true","26","m&aumlnnlich","rechts","Deutsch","","","null","","","","","","
      <img class=""person-img"" src=""https://raw.githubusercontent.com/saramff/face-recognition-images/refs/heads/master//women/woman_92.jpg"">
      <p class=""person-name"">Liana</p>
    ","","","",""
"null","","html-keyboard-response","39","2.0.0","72415","b3n3npffhb1n2pv","true","26","m&aumlnnlich","rechts","Deutsch","","","null","","","","","","<div style=""font-size:60px;"">+</div>","fixation","","",""
"null","","html-keyboard-response","40","2.0.0","73418","b3n3npffhb1n2pv","true","26","m&aumlnnlich","rechts","Deutsch","","","null","","","","","","
      <img class=""person-img"" src=""https://raw.githubusercontent.com/saramff/face-recognition-images/refs/heads/master//women/woman_35.jpg"">
      <p class=""person-name"">Charlotte</p>
    ","","","",""
"null","","html-keyboard-response","41","2.0.0","74421","b3n3npffhb1n2pv","true","26","m&aumlnnlich","rechts","Deutsch","","","null","","","","","","<div style=""font-size:60px;"">+</div>","fixation","","",""
"null","","html-keyboard-response","42","2.0.0","75423","b3n3npffhb1n2pv","true","26","m&aumlnnlich","rechts","Deutsch","","","null","","","","","","
      <img class=""person-img"" src=""https://raw.githubusercontent.com/saramff/face-recognition-images/refs/heads/master//men/man_51.jpg"">
      <p class=""person-name"">Ingo</p>
    ","","","",""
"null","","html-keyboard-response","43","2.0.0","76427","b3n3npffhb1n2pv","true","26","m&aumlnnlich","rechts","Deutsch","","","null","","","","","","<div style=""font-size:60px;"">+</div>","fixation","","",""
"null","","html-keyboard-response","44","2.0.0","77431","b3n3npffhb1n2pv","true","26","m&aumlnnlich","rechts","Deutsch","","","null","","","","","","
      <img class=""person-img"" src=""https://raw.githubusercontent.com/saramff/face-recognition-images/refs/heads/master//men/man_73.jpg"">
      <p class=""person-name"">Gereon</p>
    ","","","",""
"null","","html-keyboard-response","45","2.0.0","78433","b3n3npffhb1n2pv","true","26","m&aumlnnlich","rechts","Deutsch","","","null","","","","","","<div style=""font-size:60px;"">+</div>","fixation","","",""
"null","","html-keyboard-response","46","2.0.0","79437","b3n3npffhb1n2pv","true","26","m&aumlnnlich","rechts","Deutsch","","","null","","","","","","
      <img class=""person-img"" src=""https://raw.githubusercontent.com/saramff/face-recognition-images/refs/heads/master//men/man_59.jpg"">
      <p class=""person-name"">Michael</p>
    ","","","",""
"null","","html-keyboard-response","47","2.0.0","80440","b3n3npffhb1n2pv","true","26","m&aumlnnlich","rechts","Deutsch","","","null","","","","","","<div style=""font-size:60px;"">+</div>","fixation","","",""
"null","","html-keyboard-response","48","2.0.0","81444","b3n3npffhb1n2pv","true","26","m&aumlnnlich","rechts","Deutsch","","","null","","","","","","
      <img class=""person-img"" src=""https://raw.githubusercontent.com/saramff/face-recognition-images/refs/heads/master//women/woman_7.jpg"">
      <p class=""person-name"">Marta</p>
    ","","","",""
"null","","html-keyboard-response","49","2.0.0","82447","b3n3npffhb1n2pv","true","26","m&aumlnnlich","rechts","Deutsch","","","null","","","","","","<div style=""font-size:60px;"">+</div>","fixation","","",""
"null","","html-keyboard-response","50","2.0.0","83451","b3n3npffhb1n2pv","true","26","m&aumlnnlich","rechts","Deutsch","","","null","","","","","","
      <img class=""person-img"" src=""https://raw.githubusercontent.com/saramff/face-recognition-images/refs/heads/master//men/man_67.jpg"">
      <p class=""person-name"">Bruno</p>
    ","","","",""
"null","","html-keyboard-response","51","2.0.0","84454","b3n3npffhb1n2pv","true","26","m&aumlnnlich","rechts","Deutsch","","","null","","","","","","<div style=""font-size:60px;"">+</div>","fixation","","",""
"null","","html-keyboard-response","52","2.0.0","85457","b3n3npffhb1n2pv","true","26","m&aumlnnlich","rechts","Deutsch","","","null","","","","","","
      <img class=""person-img"" src=""https://raw.githubusercontent.com/saramff/face-recognition-images/refs/heads/master//women/woman_14.jpg"">
      <p class=""person-name"">Sophia</p>
    ","","","",""
"null","","html-keyboard-response","53","2.0.0","86459","b3n3npffhb1n2pv","true","26","m&aumlnnlich","rechts","Deutsch","","","null","","","","","","<div style=""font-size:60px;"">+</div>","fixation","","",""
"null","","html-keyboard-response","54","2.0.0","87462","b3n3npffhb1n2pv","true","26","m&aumlnnlich","rechts","Deutsch","","","null","","","","","","
      <img class=""person-img"" src=""https://raw.githubusercontent.com/saramff/face-recognition-images/refs/heads/master//women/woman_26.jpg"">
      <p class=""person-name"">Claudia</p>
    ","","","",""
"null","","html-keyboard-response","55","2.0.0","88466","b3n3npffhb1n2pv","true","26","m&aumlnnlich","rechts","Deutsch","","","null","","","","","","<div style=""font-size:60px;"">+</div>","fixation","","",""
"null","","html-keyboard-response","56","2.0.0","89471","b3n3npffhb1n2pv","true","26","m&aumlnnlich","rechts","Deutsch","","","null","","","","","","
      <img class=""person-img"" src=""https://raw.githubusercontent.com/saramff/face-recognition-images/refs/heads/master//women/woman_12.jpg"">
      <p class=""person-name"">Antonia</p>
    ","","","",""
"null","","html-keyboard-response","57","2.0.0","90473","b3n3npffhb1n2pv","true","26","m&aumlnnlich","rechts","Deutsch","","","null","","","","","","<div style=""font-size:60px;"">+</div>","fixation","","",""
"null","","html-keyboard-response","58","2.0.0","91476","b3n3npffhb1n2pv","true","26","m&aumlnnlich","rechts","Deutsch","","","null","","","","","","
      <img class=""person-img"" src=""https://raw.githubusercontent.com/saramff/face-recognition-images/refs/heads/master//women/woman_67.jpg"">
      <p class=""person-name"">Johanna</p>
    ","","","",""
"null","","html-keyboard-response","59","2.0.0","92479","b3n3npffhb1n2pv","true","26","m&aumlnnlich","rechts","Deutsch","","","null","","","","","","<div style=""font-size:60px;"">+</div>","fixation","","",""
"null","","html-keyboard-response","60","2.0.0","93482","b3n3npffhb1n2pv","true","26","m&aumlnnlich","rechts","Deutsch","","","null","","","","","","
      <img class=""person-img"" src=""https://raw.githubusercontent.com/saramff/face-recognition-images/refs/heads/master//women/woman_31.jpg"">
      <p class=""person-name"">Marla</p>
    ","","","",""
"null","","html-keyboard-response","61","2.0.0","94485","b3n3npffhb1n2pv","true","26","m&aumlnnlich","rechts","Deutsch","","","null","","","","","","<div style=""font-size:60px;"">+</div>","fixation","","",""
"null","","html-keyboard-response","62","2.0.0","95488","b3n3npffhb1n2pv","true","26","m&aumlnnlich","rechts","Deutsch","","","null","","","","","","
      <img class=""person-img"" src=""https://raw.githubusercontent.com/saramff/face-recognition-images/refs/heads/master//men/man_41.jpg"">
      <p class=""person-name"">Anton</p>
    ","","","",""
"null","","html-keyboard-response","63","2.0.0","96493","b3n3npffhb1n2pv","true","26","m&aumlnnlich","rechts","Deutsch","","","null","","","","","","<div style=""font-size:60px;"">+</div>","fixation","","",""
"null","","html-keyboard-response","64","2.0.0","97496","b3n3npffhb1n2pv","true","26","m&aumlnnlich","rechts","Deutsch","","","null","","","","","","
      <img class=""person-img"" src=""https://raw.githubusercontent.com/saramff/face-recognition-images/refs/heads/master//men/man_40.jpg"">
      <p class=""person-name"">Philipp</p>
    ","","","",""
"null","","html-keyboard-response","65","2.0.0","98498","b3n3npffhb1n2pv","true","26","m&aumlnnlich","rechts","Deutsch","","","null","","","","","","<div style=""font-size:60px;"">+</div>","fixation","","",""
"null","","html-keyboard-response","66","2.0.0","99502","b3n3npffhb1n2pv","true","26","m&aumlnnlich","rechts","Deutsch","","","null","","","","","","
      <img class=""person-img"" src=""https://raw.githubusercontent.com/saramff/face-recognition-images/refs/heads/master//men/man_62.jpg"">
      <p class=""person-name"">Theodor</p>
    ","","","",""
"null","","html-keyboard-response","67","2.0.0","100504","b3n3npffhb1n2pv","true","26","m&aumlnnlich","rechts","Deutsch","","","null","","","","","","<div style=""font-size:60px;"">+</div>","fixation","","",""
"null","","html-keyboard-response","68","2.0.0","101507","b3n3npffhb1n2pv","true","26","m&aumlnnlich","rechts","Deutsch","","","null","","","","","","
      <img class=""person-img"" src=""https://raw.githubusercontent.com/saramff/face-recognition-images/refs/heads/master//men/man_92.jpg"">
      <p class=""person-name"">Viktor</p>
    ","","","",""
"null","","html-keyboard-response","69","2.0.0","102510","b3n3npffhb1n2pv","true","26","m&aumlnnlich","rechts","Deutsch","","","null","","","","","","<div style=""font-size:60px;"">+</div>","fixation","","",""
"null","","html-keyboard-response","70","2.0.0","103513","b3n3npffhb1n2pv","true","26","m&aumlnnlich","rechts","Deutsch","","","null","","","","","","
      <img class=""person-img"" src=""https://raw.githubusercontent.com/saramff/face-recognition-images/refs/heads/master//women/woman_58.jpg"">
      <p class=""person-name"">Laura</p>
    ","","","",""
"null","","html-keyboard-response","71","2.0.0","104515","b3n3npffhb1n2pv","true","26","m&aumlnnlich","rechts","Deutsch","","","null","","","","","","<div style=""font-size:60px;"">+</div>","fixation","","",""
"null","","html-keyboard-response","72","2.0.0","105519","b3n3npffhb1n2pv","true","26","m&aumlnnlich","rechts","Deutsch","","","null","","","","","","
      <img class=""person-img"" src=""https://raw.githubusercontent.com/saramff/face-recognition-images/refs/heads/master//women/woman_20.jpg"">
      <p class=""person-name"">Lena</p>
    ","","","",""
"null","","html-keyboard-response","73","2.0.0","106522","b3n3npffhb1n2pv","true","26","m&aumlnnlich","rechts","Deutsch","","","null","","","","","","<div style=""font-size:60px;"">+</div>","fixation","","",""
"null","","html-keyboard-response","74","2.0.0","107525","b3n3npffhb1n2pv","true","26","m&aumlnnlich","rechts","Deutsch","","","null","","","","","","
      <img class=""person-img"" src=""https://raw.githubusercontent.com/saramff/face-recognition-images/refs/heads/master//women/woman_42.jpg"">
      <p class=""person-name"">Bianca</p>
    ","","","",""
"null","","html-keyboard-response","75","2.0.0","108528","b3n3npffhb1n2pv","true","26","m&aumlnnlich","rechts","Deutsch","","","null","","","","","","<div style=""font-size:60px;"">+</div>","fixation","","",""
"null","","html-keyboard-response","76","2.0.0","109532","b3n3npffhb1n2pv","true","26","m&aumlnnlich","rechts","Deutsch","","","null","","","","","","
      <img class=""person-img"" src=""https://raw.githubusercontent.com/saramff/face-recognition-images/refs/heads/master//women/woman_52.jpg"">
      <p class=""person-name"">Marlene</p>
    ","","","",""
"null","","html-keyboard-response","77","2.0.0","110534","b3n3npffhb1n2pv","true","26","m&aumlnnlich","rechts","Deutsch","","","null","","","","","","<div style=""font-size:60px;"">+</div>","fixation","","",""
"null","","html-keyboard-response","78","2.0.0","111538","b3n3npffhb1n2pv","true","26","m&aumlnnlich","rechts","Deutsch","","","null","","","","","","
      <img class=""person-img"" src=""https://raw.githubusercontent.com/saramff/face-recognition-images/refs/heads/master//men/man_93.jpg"">
      <p class=""person-name"">Adrian</p>
    ","","","",""
"null","","html-keyboard-response","79","2.0.0","112540","b3n3npffhb1n2pv","true","26","m&aumlnnlich","rechts","Deutsch","","","null","","","","","","<div style=""font-size:60px;"">+</div>","fixation","","",""
"null","","html-keyboard-response","80","2.0.0","113544","b3n3npffhb1n2pv","true","26","m&aumlnnlich","rechts","Deutsch","","","null","","","","","","
      <img class=""person-img"" src=""https://raw.githubusercontent.com/saramff/face-recognition-images/refs/heads/master//men/man_5.jpg"">
      <p class=""person-name"">Christoph</p>
    ","","","",""
"null","","html-keyboard-response","81","2.0.0","114547","b3n3npffhb1n2pv","true","26","m&aumlnnlich","rechts","Deutsch","","","null","","","","","","<div style=""font-size:60px;"">+</div>","fixation","","",""
"null","","html-keyboard-response","82","2.0.0","115550","b3n3npffhb1n2pv","true","26","m&aumlnnlich","rechts","Deutsch","","","null","","","","","","
      <img class=""person-img"" src=""https://raw.githubusercontent.com/saramff/face-recognition-images/refs/heads/master//men/man_38.jpg"">
      <p class=""person-name"">Tim</p>
    ","","","",""
"null","","html-keyboard-response","83","2.0.0","116554","b3n3npffhb1n2pv","true","26","m&aumlnnlich","rechts","Deutsch","","","null","","","","","","<div style=""font-size:60px;"">+</div>","fixation","","",""
"null","","html-keyboard-response","84","2.0.0","117558","b3n3npffhb1n2pv","true","26","m&aumlnnlich","rechts","Deutsch","","","null","","","","","","
      <img class=""person-img"" src=""https://raw.githubusercontent.com/saramff/face-recognition-images/refs/heads/master//men/man_14.jpg"">
      <p class=""person-name"">Kilian</p>
    ","","","",""
"null","","html-keyboard-response","85","2.0.0","118560","b3n3npffhb1n2pv","true","26","m&aumlnnlich","rechts","Deutsch","","","null","","","","","","<div style=""font-size:60px;"">+</div>","fixation","","",""
"null","","html-keyboard-response","86","2.0.0","119564","b3n3npffhb1n2pv","true","26","m&aumlnnlich","rechts","Deutsch","","","null","","","","","","
      <img class=""person-img"" src=""https://raw.githubusercontent.com/saramff/face-recognition-images/refs/heads/master//men/man_91.jpg"">
      <p class=""person-name"">Max</p>
    ","","","",""
"null","","html-keyboard-response","87","2.0.0","120568","b3n3npffhb1n2pv","true","26","m&aumlnnlich","rechts","Deutsch","","","null","","","","","","<div style=""font-size:60px;"">+</div>","fixation","","",""
"null","","html-keyboard-response","88","2.0.0","121572","b3n3npffhb1n2pv","true","26","m&aumlnnlich","rechts","Deutsch","","","null","","","","","","
      <img class=""person-img"" src=""https://raw.githubusercontent.com/saramff/face-recognition-images/refs/heads/master//women/woman_77.jpg"">
      <p class=""person-name"">Eva</p>
    ","","","",""
"null","","html-keyboard-response","89","2.0.0","122574","b3n3npffhb1n2pv","true","26","m&aumlnnlich","rechts","Deutsch","","","null","","","","","","<div style=""font-size:60px;"">+</div>","fixation","","",""
"null","","html-keyboard-response","90","2.0.0","123577","b3n3npffhb1n2pv","true","26","m&aumlnnlich","rechts","Deutsch","","","null","","","","","","
      <img class=""person-img"" src=""https://raw.githubusercontent.com/saramff/face-recognition-images/refs/heads/master//women/woman_1.jpg"">
      <p class=""person-name"">Fiona</p>
    ","","","",""
"null","","html-keyboard-response","91","2.0.0","124581","b3n3npffhb1n2pv","true","26","m&aumlnnlich","rechts","Deutsch","","","null","","","","","","<div style=""font-size:60px;"">+</div>","fixation","","",""
"null","","html-keyboard-response","92","2.0.0","125585","b3n3npffhb1n2pv","true","26","m&aumlnnlich","rechts","Deutsch","","","null","","","","","","
      <img class=""person-img"" src=""https://raw.githubusercontent.com/saramff/face-recognition-images/refs/heads/master//men/man_50.jpg"">
      <p class=""person-name"">Eugen</p>
    ","","","",""
"null","","html-keyboard-response","93","2.0.0","126588","b3n3npffhb1n2pv","true","26","m&aumlnnlich","rechts","Deutsch","","","null","","","","","","<div style=""font-size:60px;"">+</div>","fixation","","",""
"null","","html-keyboard-response","94","2.0.0","127591","b3n3npffhb1n2pv","true","26","m&aumlnnlich","rechts","Deutsch","","","null","","","","","","
      <img class=""person-img"" src=""https://raw.githubusercontent.com/saramff/face-recognition-images/refs/heads/master//men/man_90.jpg"">
      <p class=""person-name"">Thomas</p>
    ","","","",""
"null","","html-keyboard-response","95","2.0.0","128594","b3n3npffhb1n2pv","true","26","m&aumlnnlich","rechts","Deutsch","","","null","","","","","","<div style=""font-size:60px;"">+</div>","fixation","","",""
"null","","html-keyboard-response","96","2.0.0","129597","b3n3npffhb1n2pv","true","26","m&aumlnnlich","rechts","Deutsch","","","null","","","","","","
      <img class=""person-img"" src=""https://raw.githubusercontent.com/saramff/face-recognition-images/refs/heads/master//women/woman_43.jpg"">
      <p class=""person-name"">Klara</p>
    ","","","",""
"null","","html-keyboard-response","97","2.0.0","130600","b3n3npffhb1n2pv","true","26","m&aumlnnlich","rechts","Deutsch","","","null","","","","","","<div style=""font-size:60px;"">+</div>","fixation","","",""
"null","","html-keyboard-response","98","2.0.0","131602","b3n3npffhb1n2pv","true","26","m&aumlnnlich","rechts","Deutsch","","","null","","","","","","
      <img class=""person-img"" src=""https://raw.githubusercontent.com/saramff/face-recognition-images/refs/heads/master//women/woman_86.jpg"">
      <p class=""person-name"">Christina</p>
    ","","","",""
"null","","html-keyboard-response","99","2.0.0","132605","b3n3npffhb1n2pv","true","26","m&aumlnnlich","rechts","Deutsch","","","null","","","","","","<div style=""font-size:60px;"">+</div>","fixation","","",""
"null","","html-keyboard-response","100","2.0.0","133608","b3n3npffhb1n2pv","true","26","m&aumlnnlich","rechts","Deutsch","","","null","","","","","","
      <img class=""person-img"" src=""https://raw.githubusercontent.com/saramff/face-recognition-images/refs/heads/master//men/man_34.jpg"">
      <p class=""person-name"">Leonard</p>
    ","","","",""
"null","","html-keyboard-response","101","2.0.0","134610","b3n3npffhb1n2pv","true","26","m&aumlnnlich","rechts","Deutsch","","","null","","","","","","<div style=""font-size:60px;"">+</div>","fixation","","",""
"null","","html-keyboard-response","102","2.0.0","135613","b3n3npffhb1n2pv","true","26","m&aumlnnlich","rechts","Deutsch","","","null","","","","","","
      <img class=""person-img"" src=""https://raw.githubusercontent.com/saramff/face-recognition-images/refs/heads/master//men/man_74.jpg"">
      <p class=""person-name"">Markus</p>
    ","","","",""
"null","","html-keyboard-response","103","2.0.0","136615","b3n3npffhb1n2pv","true","26","m&aumlnnlich","rechts","Deutsch","","","null","","","","","","<div style=""font-size:60px;"">+</div>","fixation","","",""
"null","","html-keyboard-response","104","2.0.0","137618","b3n3npffhb1n2pv","true","26","m&aumlnnlich","rechts","Deutsch","","","null","","","","","","
      <img class=""person-img"" src=""https://raw.githubusercontent.com/saramff/face-recognition-images/refs/heads/master//women/woman_34.jpg"">
      <p class=""person-name"">Ariane</p>
    ","","","",""
"null","","html-keyboard-response","105","2.0.0","138622","b3n3npffhb1n2pv","true","26","m&aumlnnlich","rechts","Deutsch","","","null","","","","","","<div style=""font-size:60px;"">+</div>","fixation","","",""
"null","","html-keyboard-response","106","2.0.0","139625","b3n3npffhb1n2pv","true","26","m&aumlnnlich","rechts","Deutsch","","","null","","","","","","
      <img class=""person-img"" src=""https://raw.githubusercontent.com/saramff/face-recognition-images/refs/heads/master//women/woman_90.jpg"">
      <p class=""person-name"">Svenja</p>
    ","","","",""
"null","","html-keyboard-response","107","2.0.0","140628","b3n3npffhb1n2pv","true","26","m&aumlnnlich","rechts","Deutsch","","","null","","","","","","<div style=""font-size:60px;"">+</div>","fixation","","",""
"null","","html-keyboard-response","108","2.0.0","141632","b3n3npffhb1n2pv","true","26","m&aumlnnlich","rechts","Deutsch","","","null","","","","","","
      <img class=""person-img"" src=""https://raw.githubusercontent.com/saramff/face-recognition-images/refs/heads/master//women/woman_19.jpg"">
      <p class=""person-name"">Malou</p>
    ","","","",""
"null","","html-keyboard-response","109","2.0.0","142634","b3n3npffhb1n2pv","true","26","m&aumlnnlich","rechts","Deutsch","","","null","","","","","","<div style=""font-size:60px;"">+</div>","fixation","","",""
"null","","html-keyboard-response","110","2.0.0","143638","b3n3npffhb1n2pv","true","26","m&aumlnnlich","rechts","Deutsch","","","null","","","","","","
      <img class=""person-img"" src=""https://raw.githubusercontent.com/saramff/face-recognition-images/refs/heads/master//women/woman_75.jpg"">
      <p class=""person-name"">Fabienne</p>
    ","","","",""
"null","","html-keyboard-response","111","2.0.0","144640","b3n3npffhb1n2pv","true","26","m&aumlnnlich","rechts","Deutsch","","","null","","","","","","<div style=""font-size:60px;"">+</div>","fixation","","",""
"null","","html-keyboard-response","112","2.0.0","145643","b3n3npffhb1n2pv","true","26","m&aumlnnlich","rechts","Deutsch","","","null","","","","","","
      <img class=""person-img"" src=""https://raw.githubusercontent.com/saramff/face-recognition-images/refs/heads/master//men/man_52.jpg"">
      <p class=""person-name"">Ben</p>
    ","","","",""
"null","","html-keyboard-response","113","2.0.0","146647","b3n3npffhb1n2pv","true","26","m&aumlnnlich","rechts","Deutsch","","","null","","","","","","<div style=""font-size:60px;"">+</div>","fixation","","",""
"null","","html-keyboard-response","114","2.0.0","147651","b3n3npffhb1n2pv","true","26","m&aumlnnlich","rechts","Deutsch","","","null","","","","","","
      <img class=""person-img"" src=""https://raw.githubusercontent.com/saramff/face-recognition-images/refs/heads/master//women/woman_10.jpg"">
      <p class=""person-name"">Theresa</p>
    ","","","",""
"null","","html-keyboard-response","115","2.0.0","148653","b3n3npffhb1n2pv","true","26","m&aumlnnlich","rechts","Deutsch","","","null","","","","","","<div style=""font-size:60px;"">+</div>","fixation","","",""
"null","","html-keyboard-response","116","2.0.0","149657","b3n3npffhb1n2pv","true","26","m&aumlnnlich","rechts","Deutsch","","","null","","","","","","
      <img class=""person-img"" src=""https://raw.githubusercontent.com/saramff/face-recognition-images/refs/heads/master//men/man_15.jpg"">
      <p class=""person-name"">Jakob</p>
    ","","","",""
"null","","html-keyboard-response","117","2.0.0","150660","b3n3npffhb1n2pv","true","26","m&aumlnnlich","rechts","Deutsch","","","null","","","","","","<div style=""font-size:60px;"">+</div>","fixation","","",""
"null","","html-keyboard-response","118","2.0.0","151663","b3n3npffhb1n2pv","true","26","m&aumlnnlich","rechts","Deutsch","","","null","","","","","","
      <img class=""person-img"" src=""https://raw.githubusercontent.com/saramff/face-recognition-images/refs/heads/master//men/man_21.jpg"">
      <p class=""person-name"">Patrick</p>
    ","","","",""
"null","","html-keyboard-response","119","2.0.0","152666","b3n3npffhb1n2pv","true","26","m&aumlnnlich","rechts","Deutsch","","","null","","","","","","<div style=""font-size:60px;"">+</div>","fixation","","",""
"null","","html-keyboard-response","120","2.0.0","153669","b3n3npffhb1n2pv","true","26","m&aumlnnlich","rechts","Deutsch","","","null","","","","","","
      <img class=""person-img"" src=""https://raw.githubusercontent.com/saramff/face-recognition-images/refs/heads/master//women/woman_3.jpg"">
      <p class=""person-name"">Finja</p>
    ","","","",""
"null","","html-keyboard-response","121","2.0.0","154673","b3n3npffhb1n2pv","true","26","m&aumlnnlich","rechts","Deutsch","","","null","","","","","","<div style=""font-size:60px;"">+</div>","fixation","","",""
"null","","html-keyboard-response","122","2.0.0","155676","b3n3npffhb1n2pv","true","26","m&aumlnnlich","rechts","Deutsch","","","null","","","","","","
      <img class=""person-img"" src=""https://raw.githubusercontent.com/saramff/face-recognition-images/refs/heads/master//women/woman_4.jpg"">
      <p class=""person-name"">Amira</p>
    ","","","",""
"null","","html-keyboard-response","123","2.0.0","156678","b3n3npffhb1n2pv","true","26","m&aumlnnlich","rechts","Deutsch","","","null","","","","","","<div style=""font-size:60px;"">+</div>","fixation","","",""
"null","","html-keyboard-response","124","2.0.0","157681","b3n3npffhb1n2pv","true","26","m&aumlnnlich","rechts","Deutsch","","","null","","","","","","
      <img class=""person-img"" src=""https://raw.githubusercontent.com/saramff/face-recognition-images/refs/heads/master//women/woman_83.jpg"">
      <p class=""person-name"">Henni</p>
    ","","","",""
"null","","html-keyboard-response","125","2.0.0","158684","b3n3npffhb1n2pv","true","26","m&aumlnnlich","rechts","Deutsch","","","null","","","","","","<div style=""font-size:60px;"">+</div>","fixation","","",""
"null","","html-keyboard-response","126","2.0.0","159688","b3n3npffhb1n2pv","true","26","m&aumlnnlich","rechts","Deutsch","","","null","","","","","","
      <img class=""person-img"" src=""https://raw.githubusercontent.com/saramff/face-recognition-images/refs/heads/master//women/woman_79.jpg"">
      <p class=""person-name"">Ida</p>
    ","","","",""
"null","","html-keyboard-response","127","2.0.0","160692","b3n3npffhb1n2pv","true","26","m&aumlnnlich","rechts","Deutsch","","","null","","","","","","<div style=""font-size:60px;"">+</div>","fixation","","",""
"null","","html-keyboard-response","128","2.0.0","161695","b3n3npffhb1n2pv","true","26","m&aumlnnlich","rechts","Deutsch","","","null","","","","","","
      <img class=""person-img"" src=""https://raw.githubusercontent.com/saramff/face-recognition-images/refs/heads/master//women/woman_80.jpg"">
      <p class=""person-name"">Ella</p>
    ","","","",""
"null","","html-keyboard-response","129","2.0.0","162699","b3n3npffhb1n2pv","true","26","m&aumlnnlich","rechts","Deutsch","","","null","","","","","","<div style=""font-size:60px;"">+</div>","fixation","","",""
"null","","html-keyboard-response","130","2.0.0","163702","b3n3npffhb1n2pv","true","26","m&aumlnnlich","rechts","Deutsch","","","null","","","","","","
      <img class=""person-img"" src=""https://raw.githubusercontent.com/saramff/face-recognition-images/refs/heads/master//men/man_58.jpg"">
      <p class=""person-name"">Lukas</p>
    ","","","",""
"null","","html-keyboard-response","131","2.0.0","164704","b3n3npffhb1n2pv","true","26","m&aumlnnlich","rechts","Deutsch","","","null","","","","","","<div style=""font-size:60px;"">+</div>","fixation","","",""
"null","","html-keyboard-response","132","2.0.0","165707","b3n3npffhb1n2pv","true","26","m&aumlnnlich","rechts","Deutsch","","","null","","","","","","
      <img class=""person-img"" src=""https://raw.githubusercontent.com/saramff/face-recognition-images/refs/heads/master//men/man_39.jpg"">
      <p class=""person-name"">Moritz</p>
    ","","","",""
"null","","html-keyboard-response","133","2.0.0","166711","b3n3npffhb1n2pv","true","26","m&aumlnnlich","rechts","Deutsch","","","null","","","","","","<div style=""font-size:60px;"">+</div>","fixation","","",""
"null","","html-keyboard-response","134","2.0.0","167713","b3n3npffhb1n2pv","true","26","m&aumlnnlich","rechts","Deutsch","","","null","","","","","","
      <img class=""person-img"" src=""https://raw.githubusercontent.com/saramff/face-recognition-images/refs/heads/master//men/man_64.jpg"">
      <p class=""person-name"">Bernd</p>
    ","","","",""
"null","","html-keyboard-response","135","2.0.0","168716","b3n3npffhb1n2pv","true","26","m&aumlnnlich","rechts","Deutsch","","","null","","","","","","<div style=""font-size:60px;"">+</div>","fixation","","",""
"null","","html-keyboard-response","136","2.0.0","169720","b3n3npffhb1n2pv","true","26","m&aumlnnlich","rechts","Deutsch","","","null","","","","","","
      <img class=""person-img"" src=""https://raw.githubusercontent.com/saramff/face-recognition-images/refs/heads/master//women/woman_74.jpg"">
      <p class=""person-name"">Beate</p>
    ","","","",""
"null","","html-keyboard-response","137","2.0.0","170723","b3n3npffhb1n2pv","true","26","m&aumlnnlich","rechts","Deutsch","","","null","","","","","","<div style=""font-size:60px;"">+</div>","fixation","","",""
"null","","html-keyboard-response","138","2.0.0","171726","b3n3npffhb1n2pv","true","26","m&aumlnnlich","rechts","Deutsch","","","null","","","","","","
      <img class=""person-img"" src=""https://raw.githubusercontent.com/saramff/face-recognition-images/refs/heads/master//women/woman_8.jpg"">
      <p class=""person-name"">Verena</p>
    ","","","",""
"null","","html-keyboard-response","139","2.0.0","172729","b3n3npffhb1n2pv","true","26","m&aumlnnlich","rechts","Deutsch","","","null","","","","","","<div style=""font-size:60px;"">+</div>","fixation","","",""
"null","","html-keyboard-response","140","2.0.0","173732","b3n3npffhb1n2pv","true","26","m&aumlnnlich","rechts","Deutsch","","","null","","","","","","
      <img class=""person-img"" src=""https://raw.githubusercontent.com/saramff/face-recognition-images/refs/heads/master//women/woman_36.jpg"">
      <p class=""person-name"">Katharina</p>
    ","","","",""
"null","","html-keyboard-response","141","2.0.0","174734","b3n3npffhb1n2pv","true","26","m&aumlnnlich","rechts","Deutsch","","","null","","","","","","<div style=""font-size:60px;"">+</div>","fixation","","",""
"null","","html-keyboard-response","142","2.0.0","175738","b3n3npffhb1n2pv","true","26","m&aumlnnlich","rechts","Deutsch","","","null","","","","","","
      <img class=""person-img"" src=""https://raw.githubusercontent.com/saramff/face-recognition-images/refs/heads/master//men/man_68.jpg"">
      <p class=""person-name"">Karsten</p>
    ","","","",""
"null","","html-keyboard-response","143","2.0.0","176741","b3n3npffhb1n2pv","true","26","m&aumlnnlich","rechts","Deutsch","","","null","","","","","","<div style=""font-size:60px;"">+</div>","fixation","","",""
"null","","html-keyboard-response","144","2.0.0","177745","b3n3npffhb1n2pv","true","26","m&aumlnnlich","rechts","Deutsch","","","null","","","","","","
      <img class=""person-img"" src=""https://raw.githubusercontent.com/saramff/face-recognition-images/refs/heads/master//women/woman_51.jpg"">
      <p class=""person-name"">Anouk</p>
    ","","","",""
"null","","html-keyboard-response","145","2.0.0","178748","b3n3npffhb1n2pv","true","26","m&aumlnnlich","rechts","Deutsch","","","null","","","","","","<div style=""font-size:60px;"">+</div>","fixation","","",""
"null","","html-keyboard-response","146","2.0.0","179752","b3n3npffhb1n2pv","true","26","m&aumlnnlich","rechts","Deutsch","","","null","","","","","","
      <img class=""person-img"" src=""https://raw.githubusercontent.com/saramff/face-recognition-images/refs/heads/master//men/man_89.jpg"">
      <p class=""person-name"">Thorsten</p>
    ","","","",""
"null","","html-keyboard-response","147","2.0.0","180754","b3n3npffhb1n2pv","true","26","m&aumlnnlich","rechts","Deutsch","","","null","","","","","","<div style=""font-size:60px;"">+</div>","fixation","","",""
"null","","html-keyboard-response","148","2.0.0","181756","b3n3npffhb1n2pv","true","26","m&aumlnnlich","rechts","Deutsch","","","null","","","","","","
      <img class=""person-img"" src=""https://raw.githubusercontent.com/saramff/face-recognition-images/refs/heads/master//women/woman_50.jpg"">
      <p class=""person-name"">Lea</p>
    ","","","",""
"null","","html-keyboard-response","149","2.0.0","182760","b3n3npffhb1n2pv","true","26","m&aumlnnlich","rechts","Deutsch","","","null","","","","","","<div style=""font-size:60px;"">+</div>","fixation","","",""
"null","","html-keyboard-response","150","2.0.0","183763","b3n3npffhb1n2pv","true","26","m&aumlnnlich","rechts","Deutsch","","","null","","","","","","
      <img class=""person-img"" src=""https://raw.githubusercontent.com/saramff/face-recognition-images/refs/heads/master//men/man_20.jpg"">
      <p class=""person-name"">Artur</p>
    ","","","",""
"null","","html-keyboard-response","151","2.0.0","184767","b3n3npffhb1n2pv","true","26","m&aumlnnlich","rechts","Deutsch","","","null","","","","","","<div style=""font-size:60px;"">+</div>","fixation","","",""
"null","","html-keyboard-response","152","2.0.0","185770","b3n3npffhb1n2pv","true","26","m&aumlnnlich","rechts","Deutsch","","","null","","","","","","
      <img class=""person-img"" src=""https://raw.githubusercontent.com/saramff/face-recognition-images/refs/heads/master//men/man_69.jpg"">
      <p class=""person-name"">Achim</p>
    ","","","",""
"null","","html-keyboard-response","153","2.0.0","186773","b3n3npffhb1n2pv","true","26","m&aumlnnlich","rechts","Deutsch","","","null","","","","","","<div style=""font-size:60px;"">+</div>","fixation","","",""
"null","","html-keyboard-response","154","2.0.0","187775","b3n3npffhb1n2pv","true","26","m&aumlnnlich","rechts","Deutsch","","","null","","","","","","
      <img class=""person-img"" src=""https://raw.githubusercontent.com/saramff/face-recognition-images/refs/heads/master//men/man_71.jpg"">
      <p class=""person-name"">Robert</p>
    ","","","",""
"null","","html-keyboard-response","155","2.0.0","188778","b3n3npffhb1n2pv","true","26","m&aumlnnlich","rechts","Deutsch","","","null","","","","","","<div style=""font-size:60px;"">+</div>","fixation","","",""
"null","","html-keyboard-response","156","2.0.0","189782","b3n3npffhb1n2pv","true","26","m&aumlnnlich","rechts","Deutsch","","","null","","","","","","
      <img class=""person-img"" src=""https://raw.githubusercontent.com/saramff/face-recognition-images/refs/heads/master//men/man_17.jpg"">
      <p class=""person-name"">Gabriel</p>
    ","","","",""
"null","","html-keyboard-response","157","2.0.0","190785","b3n3npffhb1n2pv","true","26","m&aumlnnlich","rechts","Deutsch","","","null","","","","","","<div style=""font-size:60px;"">+</div>","fixation","","",""
"null","","html-keyboard-response","158","2.0.0","191788","b3n3npffhb1n2pv","true","26","m&aumlnnlich","rechts","Deutsch","","","null","","","","","","
      <img class=""person-img"" src=""https://raw.githubusercontent.com/saramff/face-recognition-images/refs/heads/master//women/woman_47.jpg"">
      <p class=""person-name"">Isabel</p>
    ","","","",""
"null","","html-keyboard-response","159","2.0.0","192792","b3n3npffhb1n2pv","true","26","m&aumlnnlich","rechts","Deutsch","","","null","","","","","","<div style=""font-size:60px;"">+</div>","fixation","","",""
"null","","html-keyboard-response","160","2.0.0","193795","b3n3npffhb1n2pv","true","26","m&aumlnnlich","rechts","Deutsch","","","null","","","","","","
      <img class=""person-img"" src=""https://raw.githubusercontent.com/saramff/face-recognition-images/refs/heads/master//women/woman_23.jpg"">
      <p class=""person-name"">Selma</p>
    ","","","",""
"null","","html-keyboard-response","161","2.0.0","194798","b3n3npffhb1n2pv","true","26","m&aumlnnlich","rechts","Deutsch","","","null","","","","","","<div style=""font-size:60px;"">+</div>","fixation","","",""
"null","","html-keyboard-response","162","2.0.0","195801","b3n3npffhb1n2pv","true","26","m&aumlnnlich","rechts","Deutsch","","","null","","","","","","
      <img class=""person-img"" src=""https://raw.githubusercontent.com/saramff/face-recognition-images/refs/heads/master//men/man_29.jpg"">
      <p class=""person-name"">Steffen</p>
    ","","","",""
"null","","html-keyboard-response","163","2.0.0","196804","b3n3npffhb1n2pv","true","26","m&aumlnnlich","rechts","Deutsch","","","null","","","","","","<div style=""font-size:60px;"">+</div>","fixation","","",""
"null","","html-keyboard-response","164","2.0.0","197808","b3n3npffhb1n2pv","true","26","m&aumlnnlich","rechts","Deutsch","","","null","","","","","","
      <img class=""person-img"" src=""https://raw.githubusercontent.com/saramff/face-recognition-images/refs/heads/master//men/man_75.jpg"">
      <p class=""person-name"">Ren&eacute;</p>
    ","","","",""
"null","","html-keyboard-response","165","2.0.0","198812","b3n3npffhb1n2pv","true","26","m&aumlnnlich","rechts","Deutsch","","","null","","","","","","<div style=""font-size:60px;"">+</div>","fixation","","",""
"null","","html-keyboard-response","166","2.0.0","199816","b3n3npffhb1n2pv","true","26","m&aumlnnlich","rechts","Deutsch","","","null","","","","","","
      <img class=""person-img"" src=""https://raw.githubusercontent.com/saramff/face-recognition-images/refs/heads/master//men/man_18.jpg"">
      <p class=""person-name"">Paul</p>
    ","","","",""
"null","","html-keyboard-response","167","2.0.0","200820","b3n3npffhb1n2pv","true","26","m&aumlnnlich","rechts","Deutsch","","","null","","","","","","<div style=""font-size:60px;"">+</div>","fixation","","",""
"null","","html-keyboard-response","168","2.0.0","201821","b3n3npffhb1n2pv","true","26","m&aumlnnlich","rechts","Deutsch","","","null","","","","","","
      <img class=""person-img"" src=""https://raw.githubusercontent.com/saramff/face-recognition-images/refs/heads/master//men/man_78.jpg"">
      <p class=""person-name"">Jonas</p>
    ","","","",""
"null","","html-keyboard-response","169","2.0.0","202825","b3n3npffhb1n2pv","true","26","m&aumlnnlich","rechts","Deutsch","","","null","","","","","","<div style=""font-size:60px;"">+</div>","fixation","","",""
"null","","html-keyboard-response","170","2.0.0","203828","b3n3npffhb1n2pv","true","26","m&aumlnnlich","rechts","Deutsch","","","null","","","","","","
      <img class=""person-img"" src=""https://raw.githubusercontent.com/saramff/face-recognition-images/refs/heads/master//men/man_79.jpg"">
      <p class=""person-name"">Johannes</p>
    ","","","",""
"null","","html-keyboard-response","171","2.0.0","204832","b3n3npffhb1n2pv","true","26","m&aumlnnlich","rechts","Deutsch","","","null","","","","","","<div style=""font-size:60px;"">+</div>","fixation","","",""
"null","","html-keyboard-response","172","2.0.0","205836","b3n3npffhb1n2pv","true","26","m&aumlnnlich","rechts","Deutsch","","","null","","","","","","
      <img class=""person-img"" src=""https://raw.githubusercontent.com/saramff/face-recognition-images/refs/heads/master//men/man_31.jpg"">
      <p class=""person-name"">Holger</p>
    ","","","",""
"null","","html-keyboard-response","173","2.0.0","206840","b3n3npffhb1n2pv","true","26","m&aumlnnlich","rechts","Deutsch","","","null","","","","","","<div style=""font-size:60px;"">+</div>","fixation","","",""
"null","","html-keyboard-response","174","2.0.0","207844","b3n3npffhb1n2pv","true","26","m&aumlnnlich","rechts","Deutsch","","","null","","","","","","
      <img class=""person-img"" src=""https://raw.githubusercontent.com/saramff/face-recognition-images/refs/heads/master//women/woman_37.jpg"">
      <p class=""person-name"">Lotte</p>
    ","","","",""
"null","","html-keyboard-response","175","2.0.0","208848","b3n3npffhb1n2pv","true","26","m&aumlnnlich","rechts","Deutsch","","","null","","","","","","<div style=""font-size:60px;"">+</div>","fixation","","",""
"null","","html-keyboard-response","176","2.0.0","209852","b3n3npffhb1n2pv","true","26","m&aumlnnlich","rechts","Deutsch","","","null","","","","","","
      <img class=""person-img"" src=""https://raw.githubusercontent.com/saramff/face-recognition-images/refs/heads/master//men/man_26.jpg"">
      <p class=""person-name"">Udo</p>
    ","","","",""
"null","","html-keyboard-response","177","2.0.0","210856","b3n3npffhb1n2pv","true","26","m&aumlnnlich","rechts","Deutsch","","","null","","","","","","<div style=""font-size:60px;"">+</div>","fixation","","",""
"null","","html-keyboard-response","178","2.0.0","211859","b3n3npffhb1n2pv","true","26","m&aumlnnlich","rechts","Deutsch","","","null","","","","","","
      <img class=""person-img"" src=""https://raw.githubusercontent.com/saramff/face-recognition-images/refs/heads/master//women/woman_68.jpg"">
      <p class=""person-name"">Mathilda</p>
    ","","","",""
"null","","html-keyboard-response","179","2.0.0","212863","b3n3npffhb1n2pv","true","26","m&aumlnnlich","rechts","Deutsch","","","null","","","","","","<div style=""font-size:60px;"">+</div>","fixation","","",""
"null","","html-keyboard-response","180","2.0.0","213866","b3n3npffhb1n2pv","true","26","m&aumlnnlich","rechts","Deutsch","","","null","","","","","","
      <img class=""person-img"" src=""https://raw.githubusercontent.com/saramff/face-recognition-images/refs/heads/master//men/man_88.jpg"">
      <p class=""person-name"">Ruben</p>
    ","","","",""
"null","","html-keyboard-response","181","2.0.0","214869","b3n3npffhb1n2pv","true","26","m&aumlnnlich","rechts","Deutsch","","","null","","","","","","<div style=""font-size:60px;"">+</div>","fixation","","",""
"null","","html-keyboard-response","182","2.0.0","215873","b3n3npffhb1n2pv","true","26","m&aumlnnlich","rechts","Deutsch","","","null","","","","","","
      <img class=""person-img"" src=""https://raw.githubusercontent.com/saramff/face-recognition-images/refs/heads/master//women/woman_17.jpg"">
      <p class=""person-name"">Veronika</p>
    ","","","",""
"null","","html-keyboard-response","183","2.0.0","216876","b3n3npffhb1n2pv","true","26","m&aumlnnlich","rechts","Deutsch","","","null","","","","","","<div style=""font-size:60px;"">+</div>","fixation","","",""
"null","","html-keyboard-response","184","2.0.0","217879","b3n3npffhb1n2pv","true","26","m&aumlnnlich","rechts","Deutsch","","","null","","","","","","
      <img class=""person-img"" src=""https://raw.githubusercontent.com/saramff/face-recognition-images/refs/heads/master//men/man_42.jpg"">
      <p class=""person-name"">Konrad</p>
    ","","","",""
"null","","html-keyboard-response","185","2.0.0","218883","b3n3npffhb1n2pv","true","26","m&aumlnnlich","rechts","Deutsch","","","null","","","","","","<div style=""font-size:60px;"">+</div>","fixation","","",""
"null","","html-keyboard-response","186","2.0.0","219886","b3n3npffhb1n2pv","true","26","m&aumlnnlich","rechts","Deutsch","","","null","","","","","","
      <img class=""person-img"" src=""https://raw.githubusercontent.com/saramff/face-recognition-images/refs/heads/master//men/man_70.jpg"">
      <p class=""person-name"">Karl</p>
    ","","","",""
"null","","html-keyboard-response","187","2.0.0","220889","b3n3npffhb1n2pv","true","26","m&aumlnnlich","rechts","Deutsch","","","null","","","","","","<div style=""font-size:60px;"">+</div>","fixation","","",""
"null","","html-keyboard-response","188","2.0.0","221893","b3n3npffhb1n2pv","true","26","m&aumlnnlich","rechts","Deutsch","","","null","","","","","","
      <img class=""person-img"" src=""https://raw.githubusercontent.com/saramff/face-recognition-images/refs/heads/master//men/man_33.jpg"">
      <p class=""person-name"">Valentin</p>
    ","","","",""
"null","","html-keyboard-response","189","2.0.0","222896","b3n3npffhb1n2pv","true","26","m&aumlnnlich","rechts","Deutsch","","","null","","","","","","<div style=""font-size:60px;"">+</div>","fixation","","",""
"null","","html-keyboard-response","190","2.0.0","223899","b3n3npffhb1n2pv","true","26","m&aumlnnlich","rechts","Deutsch","","","null","","","","","","
      <img class=""person-img"" src=""https://raw.githubusercontent.com/saramff/face-recognition-images/refs/heads/master//women/woman_85.jpg"">
      <p class=""person-name"">Alina</p>
    ","","","",""
"null","","html-keyboard-response","191","2.0.0","224902","b3n3npffhb1n2pv","true","26","m&aumlnnlich","rechts","Deutsch","","","null","","","","","","<div style=""font-size:60px;"">+</div>","fixation","","",""
"null","","html-keyboard-response","192","2.0.0","225906","b3n3npffhb1n2pv","true","26","m&aumlnnlich","rechts","Deutsch","","","null","","","","","","
      <img class=""person-img"" src=""https://raw.githubusercontent.com/saramff/face-recognition-images/refs/heads/master//women/woman_40.jpg"">
      <p class=""person-name"">Leila</p>
    ","","","",""
"null","","html-keyboard-response","193","2.0.0","226909","b3n3npffhb1n2pv","true","26","m&aumlnnlich","rechts","Deutsch","","","null","","","","","","<div style=""font-size:60px;"">+</div>","fixation","","",""
"null","","html-keyboard-response","194","2.0.0","227913","b3n3npffhb1n2pv","true","26","m&aumlnnlich","rechts","Deutsch","","","null","","","","","","
      <img class=""person-img"" src=""https://raw.githubusercontent.com/saramff/face-recognition-images/refs/heads/master//men/man_24.jpg"">
      <p class=""person-name"">Daniel</p>
    ","","","",""
"null","","html-keyboard-response","195","2.0.0","228916","b3n3npffhb1n2pv","true","26","m&aumlnnlich","rechts","Deutsch","","","null","","","","","","<div style=""font-size:60px;"">+</div>","fixation","","",""
"null","","html-keyboard-response","196","2.0.0","229919","b3n3npffhb1n2pv","true","26","m&aumlnnlich","rechts","Deutsch","","","null","","","","","","
      <img class=""person-img"" src=""https://raw.githubusercontent.com/saramff/face-recognition-images/refs/heads/master//women/woman_61.jpg"">
      <p class=""person-name"">Annika</p>
    ","","","",""
"null","","html-keyboard-response","197","2.0.0","230921","b3n3npffhb1n2pv","true","26","m&aumlnnlich","rechts","Deutsch","","","null","","","","","","<div style=""font-size:60px;"">+</div>","fixation","","",""
"null","","html-keyboard-response","198","2.0.0","231924","b3n3npffhb1n2pv","true","26","m&aumlnnlich","rechts","Deutsch","","","null","","","","","","
      <img class=""person-img"" src=""https://raw.githubusercontent.com/saramff/face-recognition-images/refs/heads/master//men/man_23.jpg"">
      <p class=""person-name"">Konstantin</p>
    ","","","",""
"null","","html-keyboard-response","199","2.0.0","232927","b3n3npffhb1n2pv","true","26","m&aumlnnlich","rechts","Deutsch","","","null","","","","","","<div style=""font-size:60px;"">+</div>","fixation","","",""
"null","","html-keyboard-response","200","2.0.0","233931","b3n3npffhb1n2pv","true","26","m&aumlnnlich","rechts","Deutsch","","","null","","","","","","
      <img class=""person-img"" src=""https://raw.githubusercontent.com/saramff/face-recognition-images/refs/heads/master//men/man_10.jpg"">
      <p class=""person-name"">Raphael</p>
    ","","","",""
"null","","html-keyboard-response","201","2.0.0","234933","b3n3npffhb1n2pv","true","26","m&aumlnnlich","rechts","Deutsch","","","null","","","","","","<div style=""font-size:60px;"">+</div>","fixation","","",""
"null","","html-keyboard-response","202","2.0.0","235937","b3n3npffhb1n2pv","true","26","m&aumlnnlich","rechts","Deutsch","","","null","","","","","","
      <img class=""person-img"" src=""https://raw.githubusercontent.com/saramff/face-recognition-images/refs/heads/master//women/woman_25.jpg"">
      <p class=""person-name"">Viktoria</p>
    ","","","",""
"null","","html-keyboard-response","203","2.0.0","236940","b3n3npffhb1n2pv","true","26","m&aumlnnlich","rechts","Deutsch","","","null","","","","","","<div style=""font-size:60px;"">+</div>","fixation","","",""
"null","","html-keyboard-response","204","2.0.0","237942","b3n3npffhb1n2pv","true","26","m&aumlnnlich","rechts","Deutsch","","","null","","","","","","
      <img class=""person-img"" src=""https://raw.githubusercontent.com/saramff/face-recognition-images/refs/heads/master//women/woman_41.jpg"">
      <p class=""person-name"">Sabrina</p>
    ","","","",""
"null","","html-keyboard-response","205","2.0.0","238945","b3n3npffhb1n2pv","true","26","m&aumlnnlich","rechts","Deutsch","","","null","","","","","","<div style=""font-size:60px;"">+</div>","fixation","","",""
"null","","html-keyboard-response","206","2.0.0","239948","b3n3npffhb1n2pv","true","26","m&aumlnnlich","rechts","Deutsch","","","null","","","","","","
      <img class=""person-img"" src=""https://raw.githubusercontent.com/saramff/face-recognition-images/refs/heads/master//women/woman_82.jpg"">
      <p class=""person-name"">Sarah</p>
    ","","","",""
"null","","html-keyboard-response","207","2.0.0","240950","b3n3npffhb1n2pv","true","26","m&aumlnnlich","rechts","Deutsch","","","null","","","","","","<div style=""font-size:60px;"">+</div>","fixation","","",""
"null","","html-keyboard-response","208","2.0.0","241953","b3n3npffhb1n2pv","true","26","m&aumlnnlich","rechts","Deutsch","","","null","","","","","","
      <img class=""person-img"" src=""https://raw.githubusercontent.com/saramff/face-recognition-images/refs/heads/master//women/woman_21.jpg"">
      <p class=""person-name"">Frauke</p>
    ","","","",""
"null","","html-keyboard-response","209","2.0.0","242955","b3n3npffhb1n2pv","true","26","m&aumlnnlich","rechts","Deutsch","","","null","","","","","","<div style=""font-size:60px;"">+</div>","fixation","","",""
"null","","html-keyboard-response","210","2.0.0","243959","b3n3npffhb1n2pv","true","26","m&aumlnnlich","rechts","Deutsch","","","null","","","","","","
      <img class=""person-img"" src=""https://raw.githubusercontent.com/saramff/face-recognition-images/refs/heads/master//men/man_28.jpg"">
      <p class=""person-name"">Tobias</p>
    ","","","",""
"null","","html-keyboard-response","211","2.0.0","244961","b3n3npffhb1n2pv","true","26","m&aumlnnlich","rechts","Deutsch","","","null","","","","","","<div style=""font-size:60px;"">+</div>","fixation","","",""
"null","","html-keyboard-response","212","2.0.0","245963","b3n3npffhb1n2pv","true","26","m&aumlnnlich","rechts","Deutsch","","","null","","","","","","
      <img class=""person-img"" src=""https://raw.githubusercontent.com/saramff/face-recognition-images/refs/heads/master//women/woman_32.jpg"">
      <p class=""person-name"">Franziska</p>
    ","","","",""
"null","","html-keyboard-response","213","2.0.0","246966","b3n3npffhb1n2pv","true","26","m&aumlnnlich","rechts","Deutsch","","","null","","","","","","<div style=""font-size:60px;"">+</div>","fixation","","",""
"null","","html-keyboard-response","214","2.0.0","247970","b3n3npffhb1n2pv","true","26","m&aumlnnlich","rechts","Deutsch","","","null","","","","","","
      <img class=""person-img"" src=""https://raw.githubusercontent.com/saramff/face-recognition-images/refs/heads/master//men/man_57.jpg"">
      <p class=""person-name"">Simon</p>
    ","","","",""
"null","","html-keyboard-response","215","2.0.0","248974","b3n3npffhb1n2pv","true","26","m&aumlnnlich","rechts","Deutsch","","","null","","","","","","<div style=""font-size:60px;"">+</div>","fixation","","",""
"null","","html-keyboard-response","216","2.0.0","249978","b3n3npffhb1n2pv","true","26","m&aumlnnlich","rechts","Deutsch","","","null","","","","","","
      <img class=""person-img"" src=""https://raw.githubusercontent.com/saramff/face-recognition-images/refs/heads/master//women/woman_28.jpg"">
      <p class=""person-name"">Josephine</p>
    ","","","",""
"null","","html-keyboard-response","217","2.0.0","250981","b3n3npffhb1n2pv","true","26","m&aumlnnlich","rechts","Deutsch","","","null","","","","","","<div style=""font-size:60px;"">+</div>","fixation","","",""
"null","","html-keyboard-response","218","2.0.0","251985","b3n3npffhb1n2pv","true","26","m&aumlnnlich","rechts","Deutsch","","","null","","","","","","
      <img class=""person-img"" src=""https://raw.githubusercontent.com/saramff/face-recognition-images/refs/heads/master//men/man_94.jpg"">
      <p class=""person-name"">Julian</p>
    ","","","",""
"null","","html-keyboard-response","219","2.0.0","252987","b3n3npffhb1n2pv","true","26","m&aumlnnlich","rechts","Deutsch","","","null","","","","","","<div style=""font-size:60px;"">+</div>","fixation","","",""
"null","","html-keyboard-response","220","2.0.0","253990","b3n3npffhb1n2pv","true","26","m&aumlnnlich","rechts","Deutsch","","","null","","","","","","
      <img class=""person-img"" src=""https://raw.githubusercontent.com/saramff/face-recognition-images/refs/heads/master//men/man_83.jpg"">
      <p class=""person-name"">Axel</p>
    ","","","",""
"null","","html-keyboard-response","221","2.0.0","254993","b3n3npffhb1n2pv","true","26","m&aumlnnlich","rechts","Deutsch","","","null","","","","","","<div style=""font-size:60px;"">+</div>","fixation","","",""
"null","","html-keyboard-response","222","2.0.0","255995","b3n3npffhb1n2pv","true","26","m&aumlnnlich","rechts","Deutsch","","","null","","","","","","
      <img class=""person-img"" src=""https://raw.githubusercontent.com/saramff/face-recognition-images/refs/heads/master//men/man_25.jpg"">
      <p class=""person-name"">Manuel</p>
    ","","","",""
"null","","html-keyboard-response","223","2.0.0","256998","b3n3npffhb1n2pv","true","26","m&aumlnnlich","rechts","Deutsch","","","null","","","","","","<div style=""font-size:60px;"">+</div>","fixation","","",""
"null","","html-keyboard-response","224","2.0.0","258001","b3n3npffhb1n2pv","true","26","m&aumlnnlich","rechts","Deutsch","","","null","","","","","","
      <img class=""person-img"" src=""https://raw.githubusercontent.com/saramff/face-recognition-images/refs/heads/master//men/man_65.jpg"">
      <p class=""person-name"">Tristan</p>
    ","","","",""
"null","","html-keyboard-response","225","2.0.0","259005","b3n3npffhb1n2pv","true","26","m&aumlnnlich","rechts","Deutsch","","","null","","","","","","<div style=""font-size:60px;"">+</div>","fixation","","",""
"null","","html-keyboard-response","226","2.0.0","260007","b3n3npffhb1n2pv","true","26","m&aumlnnlich","rechts","Deutsch","","","null","","","","","","
      <img class=""person-img"" src=""https://raw.githubusercontent.com/saramff/face-recognition-images/refs/heads/master//men/man_6.jpg"">
      <p class=""person-name"">Fabian</p>
    ","","","",""
"null","","html-keyboard-response","227","2.0.0","261009","b3n3npffhb1n2pv","true","26","m&aumlnnlich","rechts","Deutsch","","","null","","","","","","<div style=""font-size:60px;"">+</div>","fixation","","",""
"null","","html-keyboard-response","228","2.0.0","262013","b3n3npffhb1n2pv","true","26","m&aumlnnlich","rechts","Deutsch","","","null","","","","","","
      <img class=""person-img"" src=""https://raw.githubusercontent.com/saramff/face-recognition-images/refs/heads/master//men/man_87.jpg"">
      <p class=""person-name"">Oskar</p>
    ","","","",""
"null","","html-keyboard-response","229","2.0.0","263015","b3n3npffhb1n2pv","true","26","m&aumlnnlich","rechts","Deutsch","","","null","","","","","","<div style=""font-size:60px;"">+</div>","fixation","","",""
"null","","html-keyboard-response","230","2.0.0","264018","b3n3npffhb1n2pv","true","26","m&aumlnnlich","rechts","Deutsch","","","null","","","","","","
      <img class=""person-img"" src=""https://raw.githubusercontent.com/saramff/face-recognition-images/refs/heads/master//men/man_9.jpg"">
      <p class=""person-name"">J&ouml;rg</p>
    ","","","",""
"null","","html-keyboard-response","231","2.0.0","265021","b3n3npffhb1n2pv","true","26","m&aumlnnlich","rechts","Deutsch","","","null","","","","","","<div style=""font-size:60px;"">+</div>","fixation","","",""
"null","","html-keyboard-response","232","2.0.0","266025","b3n3npffhb1n2pv","true","26","m&aumlnnlich","rechts","Deutsch","","","null","","","","","","
      <img class=""person-img"" src=""https://raw.githubusercontent.com/saramff/face-recognition-images/refs/heads/master//women/woman_9.jpg"">
      <p class=""person-name"">Viola</p>
    ","","","",""
"null","","html-keyboard-response","233","2.0.0","267027","b3n3npffhb1n2pv","true","26","m&aumlnnlich","rechts","Deutsch","","","null","","","","","","<div style=""font-size:60px;"">+</div>","fixation","","",""
"null","","html-keyboard-response","234","2.0.0","268030","b3n3npffhb1n2pv","true","26","m&aumlnnlich","rechts","Deutsch","","","null","","","","","","
      <img class=""person-img"" src=""https://raw.githubusercontent.com/saramff/face-recognition-images/refs/heads/master//women/woman_95.jpg"">
      <p class=""person-name"">Leonie</p>
    ","","","",""
"null","","html-keyboard-response","235","2.0.0","269032","b3n3npffhb1n2pv","true","26","m&aumlnnlich","rechts","Deutsch","","","null","","","","","","<div style=""font-size:60px;"">+</div>","fixation","","",""
"null","","html-keyboard-response","236","2.0.0","270035","b3n3npffhb1n2pv","true","26","m&aumlnnlich","rechts","Deutsch","","","null","","","","","","
      <img class=""person-img"" src=""https://raw.githubusercontent.com/saramff/face-recognition-images/refs/heads/master//women/woman_13.jpg"">
      <p class=""person-name"">Janina</p>
    ","","","",""
"null","","html-keyboard-response","237","2.0.0","271038","b3n3npffhb1n2pv","true","26","m&aumlnnlich","rechts","Deutsch","","","null","","","","","","<div style=""font-size:60px;"">+</div>","fixation","","",""
"null","","html-keyboard-response","238","2.0.0","272041","b3n3npffhb1n2pv","true","26","m&aumlnnlich","rechts","Deutsch","","","null","","","","","","
      <img class=""person-img"" src=""https://raw.githubusercontent.com/saramff/face-recognition-images/refs/heads/master//men/man_81.jpg"">
      <p class=""person-name"">Jens</p>
    ","","","",""
"null","","html-keyboard-response","239","2.0.0","273043","b3n3npffhb1n2pv","true","26","m&aumlnnlich","rechts","Deutsch","","","null","","","","","","<div style=""font-size:60px;"">+</div>","fixation","","",""
"null","","html-keyboard-response","240","2.0.0","274047","b3n3npffhb1n2pv","true","26","m&aumlnnlich","rechts","Deutsch","","","null","","","","","","
      <img class=""person-img"" src=""https://raw.githubusercontent.com/saramff/face-recognition-images/refs/heads/master//women/woman_15.jpg"">
      <p class=""person-name"">Zoe</p>
    ","","","",""
"null","","html-keyboard-response","241","2.0.0","275049","b3n3npffhb1n2pv","true","26","m&aumlnnlich","rechts","Deutsch","","","null","","","","","","<div style=""font-size:60px;"">+</div>","fixation","","",""
"null","","html-keyboard-response","242","2.0.0","276052","b3n3npffhb1n2pv","true","26","m&aumlnnlich","rechts","Deutsch","","","null","","","","","","
      <img class=""person-img"" src=""https://raw.githubusercontent.com/saramff/face-recognition-images/refs/heads/master//women/woman_78.jpg"">
      <p class=""person-name"">Michaela</p>
    ","","","",""
"null","","html-keyboard-response","243","2.0.0","277054","b3n3npffhb1n2pv","true","26","m&aumlnnlich","rechts","Deutsch","","","null","","","","","","<div style=""font-size:60px;"">+</div>","fixation","","",""
"null","","html-keyboard-response","244","2.0.0","278057","b3n3npffhb1n2pv","true","26","m&aumlnnlich","rechts","Deutsch","","","null","","","","","","
      <img class=""person-img"" src=""https://raw.githubusercontent.com/saramff/face-recognition-images/refs/heads/master//women/woman_69.jpg"">
      <p class=""person-name"">Olivia</p>
    ","","","",""
"null","","html-keyboard-response","245","2.0.0","279060","b3n3npffhb1n2pv","true","26","m&aumlnnlich","rechts","Deutsch","","","null","","","","","","<div style=""font-size:60px;"">+</div>","fixation","","",""
"null","","html-keyboard-response","246","2.0.0","280063","b3n3npffhb1n2pv","true","26","m&aumlnnlich","rechts","Deutsch","","","null","","","","","","
      <img class=""person-img"" src=""https://raw.githubusercontent.com/saramff/face-recognition-images/refs/heads/master//men/man_44.jpg"">
      <p class=""person-name"">Jochen</p>
    ","","","",""
"null","","html-keyboard-response","247","2.0.0","281066","b3n3npffhb1n2pv","true","26","m&aumlnnlich","rechts","Deutsch","","","null","","","","","","<div style=""font-size:60px;"">+</div>","fixation","","",""
"null","","html-keyboard-response","248","2.0.0","282070","b3n3npffhb1n2pv","true","26","m&aumlnnlich","rechts","Deutsch","","","null","","","","","","
      <img class=""person-img"" src=""https://raw.githubusercontent.com/saramff/face-recognition-images/refs/heads/master//women/woman_46.jpg"">
      <p class=""person-name"">Paulina</p>
    ","","","",""
"null","","html-keyboard-response","249","2.0.0","283073","b3n3npffhb1n2pv","true","26","m&aumlnnlich","rechts","Deutsch","","","null","","","","","","<div style=""font-size:60px;"">+</div>","fixation","","",""
"null","","html-keyboard-response","250","2.0.0","284077","b3n3npffhb1n2pv","true","26","m&aumlnnlich","rechts","Deutsch","","","null","","","","","","
      <img class=""person-img"" src=""https://raw.githubusercontent.com/saramff/face-recognition-images/refs/heads/master//women/woman_55.jpg"">
      <p class=""person-name"">Ayla</p>
    ","","","",""
"null","","html-keyboard-response","251","2.0.0","285079","b3n3npffhb1n2pv","true","26","m&aumlnnlich","rechts","Deutsch","","","null","","","","","","<div style=""font-size:60px;"">+</div>","fixation","","",""
"null","","html-keyboard-response","252","2.0.0","286082","b3n3npffhb1n2pv","true","26","m&aumlnnlich","rechts","Deutsch","","","null","","","","","","
      <img class=""person-img"" src=""https://raw.githubusercontent.com/saramff/face-recognition-images/refs/heads/master//women/woman_88.jpg"">
      <p class=""person-name"">Carina</p>
    ","","","",""
"null","","html-keyboard-response","253","2.0.0","287086","b3n3npffhb1n2pv","true","26","m&aumlnnlich","rechts","Deutsch","","","null","","","","","","<div style=""font-size:60px;"">+</div>","fixation","","",""
"null","","html-keyboard-response","254","2.0.0","288089","b3n3npffhb1n2pv","true","26","m&aumlnnlich","rechts","Deutsch","","","null","","","","","","
      <img class=""person-img"" src=""https://raw.githubusercontent.com/saramff/face-recognition-images/refs/heads/master//men/man_95.jpg"">
      <p class=""person-name"">Benedikt</p>
    ","","","",""
"null","","html-keyboard-response","255","2.0.0","289093","b3n3npffhb1n2pv","true","26","m&aumlnnlich","rechts","Deutsch","","","null","","","","","","<div style=""font-size:60px;"">+</div>","fixation","","",""
"null","","html-keyboard-response","256","2.0.0","290096","b3n3npffhb1n2pv","true","26","m&aumlnnlich","rechts","Deutsch","","","null","","","","","","
      <img class=""person-img"" src=""https://raw.githubusercontent.com/saramff/face-recognition-images/refs/heads/master//women/woman_29.jpg"">
      <p class=""person-name"">Nicole</p>
    ","","","",""
"null","","html-keyboard-response","257","2.0.0","291099","b3n3npffhb1n2pv","true","26","m&aumlnnlich","rechts","Deutsch","","","null","","","","","","<div style=""font-size:60px;"">+</div>","fixation","","",""
"null","","html-keyboard-response","258","2.0.0","292102","b3n3npffhb1n2pv","true","26","m&aumlnnlich","rechts","Deutsch","","","null","","","","","","
      <img class=""person-img"" src=""https://raw.githubusercontent.com/saramff/face-recognition-images/refs/heads/master//men/man_7.jpg"">
      <p class=""person-name"">Matthias</p>
    ","","","",""
"null","","html-keyboard-response","259","2.0.0","293106","b3n3npffhb1n2pv","true","26","m&aumlnnlich","rechts","Deutsch","","","null","","","","","","<div style=""font-size:60px;"">+</div>","fixation","","",""
"null","","html-keyboard-response","260","2.0.0","294109","b3n3npffhb1n2pv","true","26","m&aumlnnlich","rechts","Deutsch","","","null","","","","","","
      <img class=""person-img"" src=""https://raw.githubusercontent.com/saramff/face-recognition-images/refs/heads/master//women/woman_2.jpg"">
      <p class=""person-name"">Annie</p>
    ","","","",""
"null","","html-keyboard-response","261","2.0.0","295112","b3n3npffhb1n2pv","true","26","m&aumlnnlich","rechts","Deutsch","","","null","","","","","","<div style=""font-size:60px;"">+</div>","fixation","","",""
"null","","html-keyboard-response","262","2.0.0","296116","b3n3npffhb1n2pv","true","26","m&aumlnnlich","rechts","Deutsch","","","null","","","","","","
      <img class=""person-img"" src=""https://raw.githubusercontent.com/saramff/face-recognition-images/refs/heads/master//men/man_60.jpg"">
      <p class=""person-name"">Ulrich</p>
    ","","","",""
"null","","html-keyboard-response","263","2.0.0","297118","b3n3npffhb1n2pv","true","26","m&aumlnnlich","rechts","Deutsch","","","null","","","","","","<div style=""font-size:60px;"">+</div>","fixation","","",""
"null","","html-keyboard-response","264","2.0.0","298122","b3n3npffhb1n2pv","true","26","m&aumlnnlich","rechts","Deutsch","","","null","","","","","","
      <img class=""person-img"" src=""https://raw.githubusercontent.com/saramff/face-recognition-images/refs/heads/master//men/man_56.jpg"">
      <p class=""person-name"">Paul</p>
    ","","","",""
"null","","html-keyboard-response","265","2.0.0","299124","b3n3npffhb1n2pv","true","26","m&aumlnnlich","rechts","Deutsch","","","null","","","","","","<div style=""font-size:60px;"">+</div>","fixation","","",""
"null","","html-keyboard-response","266","2.0.0","300125","b3n3npffhb1n2pv","true","26","m&aumlnnlich","rechts","Deutsch","","","null","","","","","","
      <img class=""person-img"" src=""https://raw.githubusercontent.com/saramff/face-recognition-images/refs/heads/master//women/woman_57.jpg"">
      <p class=""person-name"">Pia</p>
    ","","","",""
"null","","html-keyboard-response","267","2.0.0","301128","b3n3npffhb1n2pv","true","26","m&aumlnnlich","rechts","Deutsch","","","null","","","","","","<div style=""font-size:60px;"">+</div>","fixation","","",""
"null","","html-keyboard-response","268","2.0.0","302130","b3n3npffhb1n2pv","true","26","m&aumlnnlich","rechts","Deutsch","","","null","","","","","","
      <img class=""person-img"" src=""https://raw.githubusercontent.com/saramff/face-recognition-images/refs/heads/master//men/man_16.jpg"">
      <p class=""person-name"">Marius</p>
    ","","","",""
"null","","html-keyboard-response","269","2.0.0","303134","b3n3npffhb1n2pv","true","26","m&aumlnnlich","rechts","Deutsch","","","null","","","","","","<div style=""font-size:60px;"">+</div>","fixation","","",""
"null","","html-keyboard-response","270","2.0.0","304137","b3n3npffhb1n2pv","true","26","m&aumlnnlich","rechts","Deutsch","","","null","","","","","","
      <img class=""person-img"" src=""https://raw.githubusercontent.com/saramff/face-recognition-images/refs/heads/master//women/woman_81.jpg"">
      <p class=""person-name"">Daniela</p>
    ","","","",""
"null","","html-keyboard-response","271","2.0.0","305141","b3n3npffhb1n2pv","true","26","m&aumlnnlich","rechts","Deutsch","","","null","","","","","","<div style=""font-size:60px;"">+</div>","fixation","","",""
"null","","html-keyboard-response","272","2.0.0","306145","b3n3npffhb1n2pv","true","26","m&aumlnnlich","rechts","Deutsch","","","null","","","","","","
      <img class=""person-img"" src=""https://raw.githubusercontent.com/saramff/face-recognition-images/refs/heads/master//men/man_8.jpg"">
      <p class=""person-name"">Florian</p>
    ","","","",""
"null","","html-keyboard-response","273","2.0.0","307148","b3n3npffhb1n2pv","true","26","m&aumlnnlich","rechts","Deutsch","","","null","","","","","","<div style=""font-size:60px;"">+</div>","fixation","","",""
"null","","html-keyboard-response","274","2.0.0","308151","b3n3npffhb1n2pv","true","26","m&aumlnnlich","rechts","Deutsch","","","null","","","","","","
      <img class=""person-img"" src=""https://raw.githubusercontent.com/saramff/face-recognition-images/refs/heads/master//men/man_35.jpg"">
      <p class=""person-name"">David</p>
    ","","","",""
"null","","html-keyboard-response","275","2.0.0","309156","b3n3npffhb1n2pv","true","26","m&aumlnnlich","rechts","Deutsch","","","null","","","","","","<div style=""font-size:60px;"">+</div>","fixation","","",""
"null","","html-keyboard-response","276","2.0.0","310158","b3n3npffhb1n2pv","true","26","m&aumlnnlich","rechts","Deutsch","","","null","","","","","","
      <img class=""person-img"" src=""https://raw.githubusercontent.com/saramff/face-recognition-images/refs/heads/master//women/woman_65.jpg"">
      <p class=""person-name"">Lucie</p>
    ","","","",""
"null","","html-keyboard-response","277","2.0.0","311163","b3n3npffhb1n2pv","true","26","m&aumlnnlich","rechts","Deutsch","","","null","","","","","","<div style=""font-size:60px;"">+</div>","fixation","","",""
"null","","html-keyboard-response","278","2.0.0","312167","b3n3npffhb1n2pv","true","26","m&aumlnnlich","rechts","Deutsch","","","null","","","","","","
      <img class=""person-img"" src=""https://raw.githubusercontent.com/saramff/face-recognition-images/refs/heads/master//women/woman_11.jpg"">
      <p class=""person-name"">Frieda</p>
    ","","","",""
"null","","html-keyboard-response","279","2.0.0","313169","b3n3npffhb1n2pv","true","26","m&aumlnnlich","rechts","Deutsch","","","null","","","","","","<div style=""font-size:60px;"">+</div>","fixation","","",""
"null","","html-keyboard-response","280","2.0.0","314173","b3n3npffhb1n2pv","true","26","m&aumlnnlich","rechts","Deutsch","","","null","","","","","","
      <img class=""person-img"" src=""https://raw.githubusercontent.com/saramff/face-recognition-images/refs/heads/master//men/man_2.jpg"">
      <p class=""person-name"">Marcel</p>
    ","","","",""
"null","","html-keyboard-response","281","2.0.0","315177","b3n3npffhb1n2pv","true","26","m&aumlnnlich","rechts","Deutsch","","","null","","","","","","<div style=""font-size:60px;"">+</div>","fixation","","",""
"null","","html-keyboard-response","282","2.0.0","316180","b3n3npffhb1n2pv","true","26","m&aumlnnlich","rechts","Deutsch","","","null","","","","","","
      <img class=""person-img"" src=""https://raw.githubusercontent.com/saramff/face-recognition-images/refs/heads/master//women/woman_96.jpg"">
      <p class=""person-name"">Aurelia</p>
    ","","","",""
"null","","html-keyboard-response","283","2.0.0","317183","b3n3npffhb1n2pv","true","26","m&aumlnnlich","rechts","Deutsch","","","null","","","","","","<div style=""font-size:60px;"">+</div>","fixation","","",""
"null","","html-keyboard-response","284","2.0.0","318186","b3n3npffhb1n2pv","true","26","m&aumlnnlich","rechts","Deutsch","","","null","","","","","","
      <img class=""person-img"" src=""https://raw.githubusercontent.com/saramff/face-recognition-images/refs/heads/master//men/man_46.jpg"">
      <p class=""person-name"">Guido</p>
    ","","","",""
"null","","html-keyboard-response","285","2.0.0","319188","b3n3npffhb1n2pv","true","26","m&aumlnnlich","rechts","Deutsch","","","null","","","","","","<div style=""font-size:60px;"">+</div>","fixation","","",""
"null","","html-keyboard-response","286","2.0.0","320192","b3n3npffhb1n2pv","true","26","m&aumlnnlich","rechts","Deutsch","","","null","","","","","","
      <img class=""person-img"" src=""https://raw.githubusercontent.com/saramff/face-recognition-images/refs/heads/master//men/man_22.jpg"">
      <p class=""person-name"">Elias</p>
    ","","","",""
"null","","html-keyboard-response","287","2.0.0","321195","b3n3npffhb1n2pv","true","26","m&aumlnnlich","rechts","Deutsch","","","null","","","","","","<div style=""font-size:60px;"">+</div>","fixation","","",""
"null","","html-keyboard-response","288","2.0.0","322199","b3n3npffhb1n2pv","true","26","m&aumlnnlich","rechts","Deutsch","","","null","","","","","","
      <img class=""person-img"" src=""https://raw.githubusercontent.com/saramff/face-recognition-images/refs/heads/master//women/woman_56.jpg"">
      <p class=""person-name"">Nora</p>
    ","","","",""
"null","","html-keyboard-response","289","2.0.0","323203","b3n3npffhb1n2pv","true","26","m&aumlnnlich","rechts","Deutsch","","","null","","","","","","<div style=""font-size:60px;"">+</div>","fixation","","",""
"null","","html-keyboard-response","290","2.0.0","324206","b3n3npffhb1n2pv","true","26","m&aumlnnlich","rechts","Deutsch","","","null","","","","","","
      <img class=""person-img"" src=""https://raw.githubusercontent.com/saramff/face-recognition-images/refs/heads/master//women/woman_73.jpg"">
      <p class=""person-name"">Ariane</p>
    ","","","",""
"null","","html-keyboard-response","291","2.0.0","325209","b3n3npffhb1n2pv","true","26","m&aumlnnlich","rechts","Deutsch","","","null","","","","","","<div style=""font-size:60px;"">+</div>","fixation","","",""
"null","","html-keyboard-response","292","2.0.0","326211","b3n3npffhb1n2pv","true","26","m&aumlnnlich","rechts","Deutsch","","","null","","","","","","
      <img class=""person-img"" src=""https://raw.githubusercontent.com/saramff/face-recognition-images/refs/heads/master//men/man_77.jpg"">
      <p class=""person-name"">Dirk</p>
    ","","","",""
"null","","html-keyboard-response","293","2.0.0","327214","b3n3npffhb1n2pv","true","26","m&aumlnnlich","rechts","Deutsch","","","null","","","","","","<div style=""font-size:60px;"">+</div>","fixation","","",""
"null","","html-keyboard-response","294","2.0.0","328217","b3n3npffhb1n2pv","true","26","m&aumlnnlich","rechts","Deutsch","","","null","","","","","","
      <img class=""person-img"" src=""https://raw.githubusercontent.com/saramff/face-recognition-images/refs/heads/master//women/woman_62.jpg"">
      <p class=""person-name"">Helena</p>
    ","","","",""
"null","","html-keyboard-response","295","2.0.0","329220","b3n3npffhb1n2pv","true","26","m&aumlnnlich","rechts","Deutsch","","","null","","","","","","<div style=""font-size:60px;"">+</div>","fixation","","",""
"null","","html-keyboard-response","296","2.0.0","330222","b3n3npffhb1n2pv","true","26","m&aumlnnlich","rechts","Deutsch","","","null","","","","","","
      <img class=""person-img"" src=""https://raw.githubusercontent.com/saramff/face-recognition-images/refs/heads/master//men/man_43.jpg"">
      <p class=""person-name"">Sebastian</p>
    ","","","",""
"null","","html-keyboard-response","297","2.0.0","331225","b3n3npffhb1n2pv","true","26","m&aumlnnlich","rechts","Deutsch","","","null","","","","","","<div style=""font-size:60px;"">+</div>","fixation","","",""
"null","","html-keyboard-response","298","2.0.0","332229","b3n3npffhb1n2pv","true","26","m&aumlnnlich","rechts","Deutsch","","","null","","","","","","
      <img class=""person-img"" src=""https://raw.githubusercontent.com/saramff/face-recognition-images/refs/heads/master//men/man_11.jpg"">
      <p class=""person-name"">Bj&ouml;rn</p>
    ","","","",""
"null","","html-keyboard-response","299","2.0.0","333231","b3n3npffhb1n2pv","true","26","m&aumlnnlich","rechts","Deutsch","","","null","","","","","","<div style=""font-size:60px;"">+</div>","fixation","","",""
"null","","html-keyboard-response","300","2.0.0","334235","b3n3npffhb1n2pv","true","26","m&aumlnnlich","rechts","Deutsch","","","null","","","","","","
      <img class=""person-img"" src=""https://raw.githubusercontent.com/saramff/face-recognition-images/refs/heads/master//men/man_85.jpg"">
      <p class=""person-name"">Kai</p>
    ","","","",""
"null","","html-keyboard-response","301","2.0.0","335239","b3n3npffhb1n2pv","true","26","m&aumlnnlich","rechts","Deutsch","","","null","","","","","","<div style=""font-size:60px;"">+</div>","fixation","","",""
"null","","html-keyboard-response","302","2.0.0","336242","b3n3npffhb1n2pv","true","26","m&aumlnnlich","rechts","Deutsch","","","null","","","","","","
      <img class=""person-img"" src=""https://raw.githubusercontent.com/saramff/face-recognition-images/refs/heads/master//women/woman_48.jpg"">
      <p class=""person-name"">Valentina</p>
    ","","","",""
"null","","html-keyboard-response","303","2.0.0","337244","b3n3npffhb1n2pv","true","26","m&aumlnnlich","rechts","Deutsch","","","null","","","","","","<div style=""font-size:60px;"">+</div>","fixation","","",""
"null","","html-keyboard-response","304","2.0.0","338247","b3n3npffhb1n2pv","true","26","m&aumlnnlich","rechts","Deutsch","","","null","","","","","","
      <img class=""person-img"" src=""https://raw.githubusercontent.com/saramff/face-recognition-images/refs/heads/master//women/woman_33.jpg"">
      <p class=""person-name"">Emma</p>
    ","","","",""
"null","","html-keyboard-response","305","2.0.0","339250","b3n3npffhb1n2pv","true","26","m&aumlnnlich","rechts","Deutsch","","","null","","","","","","<div style=""font-size:60px;"">+</div>","fixation","","",""
"null","","html-keyboard-response","306","2.0.0","340253","b3n3npffhb1n2pv","true","26","m&aumlnnlich","rechts","Deutsch","","","null","","","","","","
      <img class=""person-img"" src=""https://raw.githubusercontent.com/saramff/face-recognition-images/refs/heads/master//women/woman_76.jpg"">
      <p class=""person-name"">Annalena</p>
    ","","","",""
"null","","html-keyboard-response","307","2.0.0","341257","b3n3npffhb1n2pv","true","26","m&aumlnnlich","rechts","Deutsch","","","null","","","","","","<div style=""font-size:60px;"">+</div>","fixation","","",""
"null","","html-keyboard-response","308","2.0.0","342261","b3n3npffhb1n2pv","true","26","m&aumlnnlich","rechts","Deutsch","","","null","","","","","","
      <img class=""person-img"" src=""https://raw.githubusercontent.com/saramff/face-recognition-images/refs/heads/master//men/man_27.jpg"">
      <p class=""person-name"">Hendrik</p>
    ","","","",""
"null","","html-keyboard-response","309","2.0.0","343263","b3n3npffhb1n2pv","true","26","m&aumlnnlich","rechts","Deutsch","","","null","","","","","","<div style=""font-size:60px;"">+</div>","fixation","","",""
"null","","html-keyboard-response","310","2.0.0","344267","b3n3npffhb1n2pv","true","26","m&aumlnnlich","rechts","Deutsch","","","null","","","","","","
      <img class=""person-img"" src=""https://raw.githubusercontent.com/saramff/face-recognition-images/refs/heads/master//men/man_63.jpg"">
      <p class=""person-name"">Alexander</p>
    ","","","",""
"null","","html-keyboard-response","311","2.0.0","345270","b3n3npffhb1n2pv","true","26","m&aumlnnlich","rechts","Deutsch","","","null","","","","","","<div style=""font-size:60px;"">+</div>","fixation","","",""
"null","","html-keyboard-response","312","2.0.0","346273","b3n3npffhb1n2pv","true","26","m&aumlnnlich","rechts","Deutsch","","","null","","","","","","
      <img class=""person-img"" src=""https://raw.githubusercontent.com/saramff/face-recognition-images/refs/heads/master//women/woman_22.jpg"">
      <p class=""person-name"">Carolin</p>
    ","","","",""
"null","","html-keyboard-response","313","2.0.0","347276","b3n3npffhb1n2pv","true","26","m&aumlnnlich","rechts","Deutsch","","","null","","","","","","<div style=""font-size:60px;"">+</div>","fixation","","",""
"null","","html-keyboard-response","314","2.0.0","348280","b3n3npffhb1n2pv","true","26","m&aumlnnlich","rechts","Deutsch","","","null","","","","","","
      <img class=""person-img"" src=""https://raw.githubusercontent.com/saramff/face-recognition-images/refs/heads/master//men/man_49.jpg"">
      <p class=""person-name"">Sven</p>
    ","","","",""
"null","","html-keyboard-response","315","2.0.0","349283","b3n3npffhb1n2pv","true","26","m&aumlnnlich","rechts","Deutsch","","","null","","","","","","<div style=""font-size:60px;"">+</div>","fixation","","",""
"null","","html-keyboard-response","316","2.0.0","350287","b3n3npffhb1n2pv","true","26","m&aumlnnlich","rechts","Deutsch","","","null","","","","","","
      <img class=""person-img"" src=""https://raw.githubusercontent.com/saramff/face-recognition-images/refs/heads/master//women/woman_27.jpg"">
      <p class=""person-name"">Elisabeth</p>
    ","","","",""
"null","","html-keyboard-response","317","2.0.0","351290","b3n3npffhb1n2pv","true","26","m&aumlnnlich","rechts","Deutsch","","","null","","","","","","<div style=""font-size:60px;"">+</div>","fixation","","",""
"null","","html-keyboard-response","318","2.0.0","352294","b3n3npffhb1n2pv","true","26","m&aumlnnlich","rechts","Deutsch","","","null","","","","","","
      <img class=""person-img"" src=""https://raw.githubusercontent.com/saramff/face-recognition-images/refs/heads/master//men/man_84.jpg"">
      <p class=""person-name"">Ralf</p>
    ","","","",""
"null","","html-keyboard-response","319","2.0.0","353297","b3n3npffhb1n2pv","true","26","m&aumlnnlich","rechts","Deutsch","","","null","","","","","","<div style=""font-size:60px;"">+</div>","fixation","","",""
"null","","html-keyboard-response","320","2.0.0","354300","b3n3npffhb1n2pv","true","26","m&aumlnnlich","rechts","Deutsch","","","null","","","","","","
      <img class=""person-img"" src=""https://raw.githubusercontent.com/saramff/face-recognition-images/refs/heads/master//men/man_19.jpg"">
      <p class=""person-name"">Dominik</p>
    ","","","",""
"null","","html-keyboard-response","321","2.0.0","355304","b3n3npffhb1n2pv","true","26","m&aumlnnlich","rechts","Deutsch","","","null","","","","","","<div style=""font-size:60px;"">+</div>","fixation","","",""
"null","","html-keyboard-response","322","2.0.0","356307","b3n3npffhb1n2pv","true","26","m&aumlnnlich","rechts","Deutsch","","","null","","","","","","
      <img class=""person-img"" src=""https://raw.githubusercontent.com/saramff/face-recognition-images/refs/heads/master//men/man_61.jpg"">
      <p class=""person-name"">Peter</p>
    ","","","",""
"null","","html-keyboard-response","323","2.0.0","357309","b3n3npffhb1n2pv","true","26","m&aumlnnlich","rechts","Deutsch","","","null","","","","","","<div style=""font-size:60px;"">+</div>","fixation","","",""
"null","","html-keyboard-response","324","2.0.0","358313","b3n3npffhb1n2pv","true","26","m&aumlnnlich","rechts","Deutsch","","","null","","","","","","
      <img class=""person-img"" src=""https://raw.githubusercontent.com/saramff/face-recognition-images/refs/heads/master//women/woman_63.jpg"">
      <p class=""person-name"">Lilly</p>
    ","","","",""
"null","","html-keyboard-response","325","2.0.0","359316","b3n3npffhb1n2pv","true","26","m&aumlnnlich","rechts","Deutsch","","","null","","","","","","<div style=""font-size:60px;"">+</div>","fixation","","",""
"null","","html-keyboard-response","326","2.0.0","360318","b3n3npffhb1n2pv","true","26","m&aumlnnlich","rechts","Deutsch","","","null","","","","","","
      <img class=""person-img"" src=""https://raw.githubusercontent.com/saramff/face-recognition-images/refs/heads/master//men/man_36.jpg"">
      <p class=""person-name"">Heiko</p>
    ","","","",""
"null","","html-keyboard-response","327","2.0.0","361322","b3n3npffhb1n2pv","true","26","m&aumlnnlich","rechts","Deutsch","","","null","","","","","","<div style=""font-size:60px;"">+</div>","fixation","","",""
"null","","html-keyboard-response","328","2.0.0","362325","b3n3npffhb1n2pv","true","26","m&aumlnnlich","rechts","Deutsch","","","null","","","","","","
      <img class=""person-img"" src=""https://raw.githubusercontent.com/saramff/face-recognition-images/refs/heads/master//men/man_37.jpg"">
      <p class=""person-name"">Noah</p>
    ","","","",""
"null","","html-keyboard-response","329","2.0.0","363328","b3n3npffhb1n2pv","true","26","m&aumlnnlich","rechts","Deutsch","","","null","","","","","","<div style=""font-size:60px;"">+</div>","fixation","","",""
"null","","html-keyboard-response","330","2.0.0","364331","b3n3npffhb1n2pv","true","26","m&aumlnnlich","rechts","Deutsch","","","null","","","","","","
      <img class=""person-img"" src=""https://raw.githubusercontent.com/saramff/face-recognition-images/refs/heads/master//men/man_80.jpg"">
      <p class=""person-name"">Martin</p>
    ","","","",""
"null","","html-keyboard-response","331","2.0.0","365335","b3n3npffhb1n2pv","true","26","m&aumlnnlich","rechts","Deutsch","","","null","","","","","","<div style=""font-size:60px;"">+</div>","fixation","","",""
"null","","html-keyboard-response","332","2.0.0","366337","b3n3npffhb1n2pv","true","26","m&aumlnnlich","rechts","Deutsch","","","null","","","","","","
      <img class=""person-img"" src=""https://raw.githubusercontent.com/saramff/face-recognition-images/refs/heads/master//women/woman_16.jpg"">
      <p class=""person-name"">Kerstin</p>
    ","","","",""
"null","","html-keyboard-response","333","2.0.0","367341","b3n3npffhb1n2pv","true","26","m&aumlnnlich","rechts","Deutsch","","","null","","","","","","<div style=""font-size:60px;"">+</div>","fixation","","",""
"null","","html-keyboard-response","334","2.0.0","368345","b3n3npffhb1n2pv","true","26","m&aumlnnlich","rechts","Deutsch","","","null","","","","","","
      <img class=""person-img"" src=""https://raw.githubusercontent.com/saramff/face-recognition-images/refs/heads/master//men/man_53.jpg"">
      <p class=""person-name"">Rolf</p>
    ","","","",""
"null","","html-keyboard-response","335","2.0.0","369347","b3n3npffhb1n2pv","true","26","m&aumlnnlich","rechts","Deutsch","","","null","","","","","","<div style=""font-size:60px;"">+</div>","fixation","","",""
"null","","html-keyboard-response","336","2.0.0","370351","b3n3npffhb1n2pv","true","26","m&aumlnnlich","rechts","Deutsch","","","null","","","","","","
      <img class=""person-img"" src=""https://raw.githubusercontent.com/saramff/face-recognition-images/refs/heads/master//women/woman_94.jpg"">
      <p class=""person-name"">Rosalie</p>
    ","","","",""
"null","","html-keyboard-response","337","2.0.0","371353","b3n3npffhb1n2pv","true","26","m&aumlnnlich","rechts","Deutsch","","","null","","","","","","<div style=""font-size:60px;"">+</div>","fixation","","",""
"null","","html-keyboard-response","338","2.0.0","372356","b3n3npffhb1n2pv","true","26","m&aumlnnlich","rechts","Deutsch","","","null","","","","","","
      <img class=""person-img"" src=""https://raw.githubusercontent.com/saramff/face-recognition-images/refs/heads/master//women/woman_87.jpg"">
      <p class=""person-name"">Louisa</p>
    ","","","",""
"null","","html-keyboard-response","339","2.0.0","373359","b3n3npffhb1n2pv","true","26","m&aumlnnlich","rechts","Deutsch","","","null","","","","","","<div style=""font-size:60px;"">+</div>","fixation","","",""
"null","","html-keyboard-response","340","2.0.0","374363","b3n3npffhb1n2pv","true","26","m&aumlnnlich","rechts","Deutsch","","","null","","","","","","
      <img class=""person-img"" src=""https://raw.githubusercontent.com/saramff/face-recognition-images/refs/heads/master//women/woman_84.jpg"">
      <p class=""person-name"">Karlotta</p>
    ","","","",""
"null","","html-keyboard-response","341","2.0.0","375366","b3n3npffhb1n2pv","true","26","m&aumlnnlich","rechts","Deutsch","","","null","","","","","","<div style=""font-size:60px;"">+</div>","fixation","","",""
"null","","html-keyboard-response","342","2.0.0","376370","b3n3npffhb1n2pv","true","26","m&aumlnnlich","rechts","Deutsch","","","null","","","","","","
      <img class=""person-img"" src=""https://raw.githubusercontent.com/saramff/face-recognition-images/refs/heads/master//women/woman_30.jpg"">
      <p class=""person-name"">Tabea</p>
    ","","","",""
"null","","html-keyboard-response","343","2.0.0","377373","b3n3npffhb1n2pv","true","26","m&aumlnnlich","rechts","Deutsch","","","null","","","","","","<div style=""font-size:60px;"">+</div>","fixation","","",""
"null","","html-keyboard-response","344","2.0.0","378376","b3n3npffhb1n2pv","true","26","m&aumlnnlich","rechts","Deutsch","","","null","","","","","","
      <img class=""person-img"" src=""https://raw.githubusercontent.com/saramff/face-recognition-images/refs/heads/master//women/woman_45.jpg"">
      <p class=""person-name"">Julia</p>
    ","","","",""
"null","","html-keyboard-response","345","2.0.0","379379","b3n3npffhb1n2pv","true","26","m&aumlnnlich","rechts","Deutsch","","","null","","","","","","<div style=""font-size:60px;"">+</div>","fixation","","",""
"null","","html-keyboard-response","346","2.0.0","380383","b3n3npffhb1n2pv","true","26","m&aumlnnlich","rechts","Deutsch","","","null","","","","","","
      <img class=""person-img"" src=""https://raw.githubusercontent.com/saramff/face-recognition-images/refs/heads/master//women/woman_64.jpg"">
      <p class=""person-name"">Sina</p>
    ","","","",""
"null","","html-keyboard-response","347","2.0.0","381386","b3n3npffhb1n2pv","true","26","m&aumlnnlich","rechts","Deutsch","","","null","","","","","","<div style=""font-size:60px;"">+</div>","fixation","","",""
"null","","html-keyboard-response","348","2.0.0","382390","b3n3npffhb1n2pv","true","26","m&aumlnnlich","rechts","Deutsch","","","null","","","","","","
      <img class=""person-img"" src=""https://raw.githubusercontent.com/saramff/face-recognition-images/refs/heads/master//women/woman_71.jpg"">
      <p class=""person-name"">Carla</p>
    ","","","",""
"null","","html-keyboard-response","349","2.0.0","383392","b3n3npffhb1n2pv","true","26","m&aumlnnlich","rechts","Deutsch","","","null","","","","","","<div style=""font-size:60px;"">+</div>","fixation","","",""
"null","","html-keyboard-response","350","2.0.0","384395","b3n3npffhb1n2pv","true","26","m&aumlnnlich","rechts","Deutsch","","","null","","","","","","
      <img class=""person-img"" src=""https://raw.githubusercontent.com/saramff/face-recognition-images/refs/heads/master//women/woman_72.jpg"">
      <p class=""person-name"">Jasmin</p>
    ","","","",""
"null","","html-keyboard-response","351","2.0.0","385399","b3n3npffhb1n2pv","true","26","m&aumlnnlich","rechts","Deutsch","","","null","","","","","","<div style=""font-size:60px;"">+</div>","fixation","","",""
"null","","html-keyboard-response","352","2.0.0","386403","b3n3npffhb1n2pv","true","26","m&aumlnnlich","rechts","Deutsch","","","null","","","","","","
      <img class=""person-img"" src=""https://raw.githubusercontent.com/saramff/face-recognition-images/refs/heads/master//women/woman_54.jpg"">
      <p class=""person-name"">Beate</p>
    ","","","",""
"null","","html-keyboard-response","353","2.0.0","387405","b3n3npffhb1n2pv","true","26","m&aumlnnlich","rechts","Deutsch","","","null","","","","","","<div style=""font-size:60px;"">+</div>","fixation","","",""
"null","","html-keyboard-response","354","2.0.0","388408","b3n3npffhb1n2pv","true","26","m&aumlnnlich","rechts","Deutsch","","","null","","","","","","
      <img class=""person-img"" src=""https://raw.githubusercontent.com/saramff/face-recognition-images/refs/heads/master//women/woman_89.jpg"">
      <p class=""person-name"">Freya</p>
    ","","","",""
