"rt","url","trial_type","trial_index","plugin_version","time_elapsed","subject","fullscreen","age","gender","handedness","language","success","type","response","question_order","timeout","failed_images","failed_audio","failed_video","stimulus","task","correct_response","correct","correct_response_meaning"
"58299","consentA2.html","external-html","0","2.0.0","58624","0fsedrn20s7d3na","true","30","m&aumlnnlich","rechts","Deutsch","","","","","","","","","","","","",""
"1680","","fullscreen","1","2.0.0","61311","0fsedrn20s7d3na","true","30","m&aumlnnlich","rechts","Deutsch","true","","","","","","","","","","","",""
"4070","","survey-text","2","2.0.0","65474","0fsedrn20s7d3na","true","30","m&aumlnnlich","rechts","Deutsch","","demo","{""Q0"":""30""}","","","","","","","","","",""
"7544","","survey-multi-choice","3","2.0.0","73023","0fsedrn20s7d3na","true","30","m&aumlnnlich","rechts","Deutsch","","","{""gender"":""m&aumlnnlich"",""handedness"":""rechts"",""language"":""Deutsch""}","[0,1,2]","","","","","","","","",""
"","","preload","4","2.0.0","198842","0fsedrn20s7d3na","true","30","m&aumlnnlich","rechts","Deutsch","true","","","","false","[]","[]","[]","","","","",""
"","","preload","5","2.0.0","209554","0fsedrn20s7d3na","true","30","m&aumlnnlich","rechts","Deutsch","true","","","","false","[]","[]","[]","","","","",""
"","","preload","6","2.0.0","243940","0fsedrn20s7d3na","true","30","m&aumlnnlich","rechts","Deutsch","true","","","","false","[]","[]","[]","","","","",""
"106074","","html-keyboard-response","7","2.0.0","350016","0fsedrn20s7d3na","true","30","m&aumlnnlich","rechts","Deutsch","",""," ","","","","","","Willkommen zum Experiment. Drücken Sie eine beliebige Taste, um zu beginnen.","","","",""
"6283","","html-keyboard-response","8","2.0.0","356302","0fsedrn20s7d3na","true","30","m&aumlnnlich","rechts","Deutsch","",""," ","","","","","","
    <p>In diesem Experiment werden nacheinander automatisch verschiedene Gesichter angezeigt.</p>
    <p>Bitte achten Sie genau auf jedes Gesicht und den dazugehörigen Namen.</p>
    <p>Die Gesichter erscheinen von selbst und Sie brauchen nichts weiter zu tun, außer aufmerksam zu sein.</p>
    <p>Drücken Sie eine beliebige Taste, um zu beginnen, wenn Sie bereit sind.</p>
  ","","","",""
"null","","html-keyboard-response","9","2.0.0","357314","0fsedrn20s7d3na","true","30","m&aumlnnlich","rechts","Deutsch","","","null","","","","","","<div style=""font-size:60px;"">+</div>","fixation","","",""
"null","","html-keyboard-response","10","2.0.0","358323","0fsedrn20s7d3na","true","30","m&aumlnnlich","rechts","Deutsch","","","null","","","","","","
      <img class=""person-img"" src=""https://raw.githubusercontent.com/saramff/face-recognition-images/refs/heads/master//men/man_49.jpg"">
      <p class=""person-name"">Olaf</p>
    ","","","",""
"null","","html-keyboard-response","11","2.0.0","359331","0fsedrn20s7d3na","true","30","m&aumlnnlich","rechts","Deutsch","","","null","","","","","","<div style=""font-size:60px;"">+</div>","fixation","","",""
"null","","html-keyboard-response","12","2.0.0","360338","0fsedrn20s7d3na","true","30","m&aumlnnlich","rechts","Deutsch","","","null","","","","","","
      <img class=""person-img"" src=""https://raw.githubusercontent.com/saramff/face-recognition-images/refs/heads/master//women/woman_9.jpg"">
      <p class=""person-name"">Viola</p>
    ","","","",""
"null","","html-keyboard-response","13","2.0.0","361347","0fsedrn20s7d3na","true","30","m&aumlnnlich","rechts","Deutsch","","","null","","","","","","<div style=""font-size:60px;"">+</div>","fixation","","",""
"null","","html-keyboard-response","14","2.0.0","362352","0fsedrn20s7d3na","true","30","m&aumlnnlich","rechts","Deutsch","","","null","","","","","","
      <img class=""person-img"" src=""https://raw.githubusercontent.com/saramff/face-recognition-images/refs/heads/master//women/woman_52.jpg"">
      <p class=""person-name"">Mathilda</p>
    ","","","",""
"null","","html-keyboard-response","15","2.0.0","363359","0fsedrn20s7d3na","true","30","m&aumlnnlich","rechts","Deutsch","","","null","","","","","","<div style=""font-size:60px;"">+</div>","fixation","","",""
"null","","html-keyboard-response","16","2.0.0","364366","0fsedrn20s7d3na","true","30","m&aumlnnlich","rechts","Deutsch","","","null","","","","","","
      <img class=""person-img"" src=""https://raw.githubusercontent.com/saramff/face-recognition-images/refs/heads/master//men/man_47.jpg"">
      <p class=""person-name"">Gereon</p>
    ","","","",""
"null","","html-keyboard-response","17","2.0.0","365374","0fsedrn20s7d3na","true","30","m&aumlnnlich","rechts","Deutsch","","","null","","","","","","<div style=""font-size:60px;"">+</div>","fixation","","",""
"null","","html-keyboard-response","18","2.0.0","366382","0fsedrn20s7d3na","true","30","m&aumlnnlich","rechts","Deutsch","","","null","","","","","","
      <img class=""person-img"" src=""https://raw.githubusercontent.com/saramff/face-recognition-images/refs/heads/master//men/man_54.jpg"">
      <p class=""person-name"">Konstantin</p>
    ","","","",""
"null","","html-keyboard-response","19","2.0.0","367389","0fsedrn20s7d3na","true","30","m&aumlnnlich","rechts","Deutsch","","","null","","","","","","<div style=""font-size:60px;"">+</div>","fixation","","",""
"null","","html-keyboard-response","20","2.0.0","368396","0fsedrn20s7d3na","true","30","m&aumlnnlich","rechts","Deutsch","","","null","","","","","","
      <img class=""person-img"" src=""https://raw.githubusercontent.com/saramff/face-recognition-images/refs/heads/master//men/man_37.jpg"">
      <p class=""person-name"">David</p>
    ","","","",""
"null","","html-keyboard-response","21","2.0.0","369405","0fsedrn20s7d3na","true","30","m&aumlnnlich","rechts","Deutsch","","","null","","","","","","<div style=""font-size:60px;"">+</div>","fixation","","",""
"null","","html-keyboard-response","22","2.0.0","370412","0fsedrn20s7d3na","true","30","m&aumlnnlich","rechts","Deutsch","","","null","","","","","","
      <img class=""person-img"" src=""https://raw.githubusercontent.com/saramff/face-recognition-images/refs/heads/master//men/man_14.jpg"">
      <p class=""person-name"">Karsten</p>
    ","","","",""
"null","","html-keyboard-response","23","2.0.0","371419","0fsedrn20s7d3na","true","30","m&aumlnnlich","rechts","Deutsch","","","null","","","","","","<div style=""font-size:60px;"">+</div>","fixation","","",""
"null","","html-keyboard-response","24","2.0.0","372426","0fsedrn20s7d3na","true","30","m&aumlnnlich","rechts","Deutsch","","","null","","","","","","
      <img class=""person-img"" src=""https://raw.githubusercontent.com/saramff/face-recognition-images/refs/heads/master//women/woman_45.jpg"">
      <p class=""person-name"">Emma</p>
    ","","","",""
"null","","html-keyboard-response","25","2.0.0","373434","0fsedrn20s7d3na","true","30","m&aumlnnlich","rechts","Deutsch","","","null","","","","","","<div style=""font-size:60px;"">+</div>","fixation","","",""
"null","","html-keyboard-response","26","2.0.0","374442","0fsedrn20s7d3na","true","30","m&aumlnnlich","rechts","Deutsch","","","null","","","","","","
      <img class=""person-img"" src=""https://raw.githubusercontent.com/saramff/face-recognition-images/refs/heads/master//men/man_58.jpg"">
      <p class=""person-name"">J&ouml;rg</p>
    ","","","",""
"null","","html-keyboard-response","27","2.0.0","375450","0fsedrn20s7d3na","true","30","m&aumlnnlich","rechts","Deutsch","","","null","","","","","","<div style=""font-size:60px;"">+</div>","fixation","","",""
"null","","html-keyboard-response","28","2.0.0","376458","0fsedrn20s7d3na","true","30","m&aumlnnlich","rechts","Deutsch","","","null","","","","","","
      <img class=""person-img"" src=""https://raw.githubusercontent.com/saramff/face-recognition-images/refs/heads/master//men/man_36.jpg"">
      <p class=""person-name"">Ulrich</p>
    ","","","",""
"null","","html-keyboard-response","29","2.0.0","377467","0fsedrn20s7d3na","true","30","m&aumlnnlich","rechts","Deutsch","","","null","","","","","","<div style=""font-size:60px;"">+</div>","fixation","","",""
"null","","html-keyboard-response","30","2.0.0","378476","0fsedrn20s7d3na","true","30","m&aumlnnlich","rechts","Deutsch","","","null","","","","","","
      <img class=""person-img"" src=""https://raw.githubusercontent.com/saramff/face-recognition-images/refs/heads/master//men/man_88.jpg"">
      <p class=""person-name"">Udo</p>
    ","","","",""
"null","","html-keyboard-response","31","2.0.0","379483","0fsedrn20s7d3na","true","30","m&aumlnnlich","rechts","Deutsch","","","null","","","","","","<div style=""font-size:60px;"">+</div>","fixation","","",""
"null","","html-keyboard-response","32","2.0.0","380489","0fsedrn20s7d3na","true","30","m&aumlnnlich","rechts","Deutsch","","","null","","","","","","
      <img class=""person-img"" src=""https://raw.githubusercontent.com/saramff/face-recognition-images/refs/heads/master//women/woman_33.jpg"">
      <p class=""person-name"">Laura</p>
    ","","","",""
"null","","html-keyboard-response","33","2.0.0","381500","0fsedrn20s7d3na","true","30","m&aumlnnlich","rechts","Deutsch","","","null","","","","","","<div style=""font-size:60px;"">+</div>","fixation","","",""
"null","","html-keyboard-response","34","2.0.0","382507","0fsedrn20s7d3na","true","30","m&aumlnnlich","rechts","Deutsch","","","null","","","","","","
      <img class=""person-img"" src=""https://raw.githubusercontent.com/saramff/face-recognition-images/refs/heads/master//men/man_22.jpg"">
      <p class=""person-name"">Clemens</p>
    ","","","",""
"null","","html-keyboard-response","35","2.0.0","383514","0fsedrn20s7d3na","true","30","m&aumlnnlich","rechts","Deutsch","","","null","","","","","","<div style=""font-size:60px;"">+</div>","fixation","","",""
"null","","html-keyboard-response","36","2.0.0","384522","0fsedrn20s7d3na","true","30","m&aumlnnlich","rechts","Deutsch","","","null","","","","","","
      <img class=""person-img"" src=""https://raw.githubusercontent.com/saramff/face-recognition-images/refs/heads/master//men/man_48.jpg"">
      <p class=""person-name"">Philipp</p>
    ","","","",""
"null","","html-keyboard-response","37","2.0.0","385530","0fsedrn20s7d3na","true","30","m&aumlnnlich","rechts","Deutsch","","","null","","","","","","<div style=""font-size:60px;"">+</div>","fixation","","",""
"null","","html-keyboard-response","38","2.0.0","386538","0fsedrn20s7d3na","true","30","m&aumlnnlich","rechts","Deutsch","","","null","","","","","","
      <img class=""person-img"" src=""https://raw.githubusercontent.com/saramff/face-recognition-images/refs/heads/master//men/man_20.jpg"">
      <p class=""person-name"">Adrian</p>
    ","","","",""
"null","","html-keyboard-response","39","2.0.0","387546","0fsedrn20s7d3na","true","30","m&aumlnnlich","rechts","Deutsch","","","null","","","","","","<div style=""font-size:60px;"">+</div>","fixation","","",""
"null","","html-keyboard-response","40","2.0.0","388554","0fsedrn20s7d3na","true","30","m&aumlnnlich","rechts","Deutsch","","","null","","","","","","
      <img class=""person-img"" src=""https://raw.githubusercontent.com/saramff/face-recognition-images/refs/heads/master//women/woman_64.jpg"">
      <p class=""person-name"">Alina</p>
    ","","","",""
"null","","html-keyboard-response","41","2.0.0","389562","0fsedrn20s7d3na","true","30","m&aumlnnlich","rechts","Deutsch","","","null","","","","","","<div style=""font-size:60px;"">+</div>","fixation","","",""
"null","","html-keyboard-response","42","2.0.0","390568","0fsedrn20s7d3na","true","30","m&aumlnnlich","rechts","Deutsch","","","null","","","","","","
      <img class=""person-img"" src=""https://raw.githubusercontent.com/saramff/face-recognition-images/refs/heads/master//women/woman_21.jpg"">
      <p class=""person-name"">Henni</p>
    ","","","",""
"null","","html-keyboard-response","43","2.0.0","391577","0fsedrn20s7d3na","true","30","m&aumlnnlich","rechts","Deutsch","","","null","","","","","","<div style=""font-size:60px;"">+</div>","fixation","","",""
"null","","html-keyboard-response","44","2.0.0","392585","0fsedrn20s7d3na","true","30","m&aumlnnlich","rechts","Deutsch","","","null","","","","","","
      <img class=""person-img"" src=""https://raw.githubusercontent.com/saramff/face-recognition-images/refs/heads/master//women/woman_22.jpg"">
      <p class=""person-name"">Nora</p>
    ","","","",""
"null","","html-keyboard-response","45","2.0.0","393594","0fsedrn20s7d3na","true","30","m&aumlnnlich","rechts","Deutsch","","","null","","","","","","<div style=""font-size:60px;"">+</div>","fixation","","",""
"null","","html-keyboard-response","46","2.0.0","394601","0fsedrn20s7d3na","true","30","m&aumlnnlich","rechts","Deutsch","","","null","","","","","","
      <img class=""person-img"" src=""https://raw.githubusercontent.com/saramff/face-recognition-images/refs/heads/master//men/man_18.jpg"">
      <p class=""person-name"">Christoph</p>
    ","","","",""
"null","","html-keyboard-response","47","2.0.0","395607","0fsedrn20s7d3na","true","30","m&aumlnnlich","rechts","Deutsch","","","null","","","","","","<div style=""font-size:60px;"">+</div>","fixation","","",""
"null","","html-keyboard-response","48","2.0.0","396614","0fsedrn20s7d3na","true","30","m&aumlnnlich","rechts","Deutsch","","","null","","","","","","
      <img class=""person-img"" src=""https://raw.githubusercontent.com/saramff/face-recognition-images/refs/heads/master//men/man_95.jpg"">
      <p class=""person-name"">Raphael</p>
    ","","","",""
"null","","html-keyboard-response","49","2.0.0","397620","0fsedrn20s7d3na","true","30","m&aumlnnlich","rechts","Deutsch","","","null","","","","","","<div style=""font-size:60px;"">+</div>","fixation","","",""
"null","","html-keyboard-response","50","2.0.0","398626","0fsedrn20s7d3na","true","30","m&aumlnnlich","rechts","Deutsch","","","null","","","","","","
      <img class=""person-img"" src=""https://raw.githubusercontent.com/saramff/face-recognition-images/refs/heads/master//men/man_86.jpg"">
      <p class=""person-name"">Manuel</p>
    ","","","",""
"null","","html-keyboard-response","51","2.0.0","399633","0fsedrn20s7d3na","true","30","m&aumlnnlich","rechts","Deutsch","","","null","","","","","","<div style=""font-size:60px;"">+</div>","fixation","","",""
"null","","html-keyboard-response","52","2.0.0","400641","0fsedrn20s7d3na","true","30","m&aumlnnlich","rechts","Deutsch","","","null","","","","","","
      <img class=""person-img"" src=""https://raw.githubusercontent.com/saramff/face-recognition-images/refs/heads/master//women/woman_83.jpg"">
      <p class=""person-name"">Viktoria</p>
    ","","","",""
"null","","html-keyboard-response","53","2.0.0","401648","0fsedrn20s7d3na","true","30","m&aumlnnlich","rechts","Deutsch","","","null","","","","","","<div style=""font-size:60px;"">+</div>","fixation","","",""
"null","","html-keyboard-response","54","2.0.0","402657","0fsedrn20s7d3na","true","30","m&aumlnnlich","rechts","Deutsch","","","null","","","","","","
      <img class=""person-img"" src=""https://raw.githubusercontent.com/saramff/face-recognition-images/refs/heads/master//men/man_25.jpg"">
      <p class=""person-name"">Kai</p>
    ","","","",""
"null","","html-keyboard-response","55","2.0.0","403665","0fsedrn20s7d3na","true","30","m&aumlnnlich","rechts","Deutsch","","","null","","","","","","<div style=""font-size:60px;"">+</div>","fixation","","",""
"null","","html-keyboard-response","56","2.0.0","404671","0fsedrn20s7d3na","true","30","m&aumlnnlich","rechts","Deutsch","","","null","","","","","","
      <img class=""person-img"" src=""https://raw.githubusercontent.com/saramff/face-recognition-images/refs/heads/master//women/woman_96.jpg"">
      <p class=""person-name"">Isabel</p>
    ","","","",""
"null","","html-keyboard-response","57","2.0.0","405680","0fsedrn20s7d3na","true","30","m&aumlnnlich","rechts","Deutsch","","","null","","","","","","<div style=""font-size:60px;"">+</div>","fixation","","",""
"null","","html-keyboard-response","58","2.0.0","406687","0fsedrn20s7d3na","true","30","m&aumlnnlich","rechts","Deutsch","","","null","","","","","","
      <img class=""person-img"" src=""https://raw.githubusercontent.com/saramff/face-recognition-images/refs/heads/master//men/man_33.jpg"">
      <p class=""person-name"">Noah</p>
    ","","","",""
"null","","html-keyboard-response","59","2.0.0","407696","0fsedrn20s7d3na","true","30","m&aumlnnlich","rechts","Deutsch","","","null","","","","","","<div style=""font-size:60px;"">+</div>","fixation","","",""
"null","","html-keyboard-response","60","2.0.0","408703","0fsedrn20s7d3na","true","30","m&aumlnnlich","rechts","Deutsch","","","null","","","","","","
      <img class=""person-img"" src=""https://raw.githubusercontent.com/saramff/face-recognition-images/refs/heads/master//women/woman_53.jpg"">
      <p class=""person-name"">Amira</p>
    ","","","",""
"null","","html-keyboard-response","61","2.0.0","409711","0fsedrn20s7d3na","true","30","m&aumlnnlich","rechts","Deutsch","","","null","","","","","","<div style=""font-size:60px;"">+</div>","fixation","","",""
"null","","html-keyboard-response","62","2.0.0","410718","0fsedrn20s7d3na","true","30","m&aumlnnlich","rechts","Deutsch","","","null","","","","","","
      <img class=""person-img"" src=""https://raw.githubusercontent.com/saramff/face-recognition-images/refs/heads/master//men/man_72.jpg"">
      <p class=""person-name"">Ralf</p>
    ","","","",""
"null","","html-keyboard-response","63","2.0.0","411726","0fsedrn20s7d3na","true","30","m&aumlnnlich","rechts","Deutsch","","","null","","","","","","<div style=""font-size:60px;"">+</div>","fixation","","",""
"null","","html-keyboard-response","64","2.0.0","412733","0fsedrn20s7d3na","true","30","m&aumlnnlich","rechts","Deutsch","","","null","","","","","","
      <img class=""person-img"" src=""https://raw.githubusercontent.com/saramff/face-recognition-images/refs/heads/master//men/man_12.jpg"">
      <p class=""person-name"">Moritz</p>
    ","","","",""
"null","","html-keyboard-response","65","2.0.0","413742","0fsedrn20s7d3na","true","30","m&aumlnnlich","rechts","Deutsch","","","null","","","","","","<div style=""font-size:60px;"">+</div>","fixation","","",""
"null","","html-keyboard-response","66","2.0.0","414747","0fsedrn20s7d3na","true","30","m&aumlnnlich","rechts","Deutsch","","","null","","","","","","
      <img class=""person-img"" src=""https://raw.githubusercontent.com/saramff/face-recognition-images/refs/heads/master//women/woman_13.jpg"">
      <p class=""person-name"">Verena</p>
    ","","","",""
"null","","html-keyboard-response","67","2.0.0","415755","0fsedrn20s7d3na","true","30","m&aumlnnlich","rechts","Deutsch","","","null","","","","","","<div style=""font-size:60px;"">+</div>","fixation","","",""
"null","","html-keyboard-response","68","2.0.0","416763","0fsedrn20s7d3na","true","30","m&aumlnnlich","rechts","Deutsch","","","null","","","","","","
      <img class=""person-img"" src=""https://raw.githubusercontent.com/saramff/face-recognition-images/refs/heads/master//women/woman_26.jpg"">
      <p class=""person-name"">Kerstin</p>
    ","","","",""
"null","","html-keyboard-response","69","2.0.0","417771","0fsedrn20s7d3na","true","30","m&aumlnnlich","rechts","Deutsch","","","null","","","","","","<div style=""font-size:60px;"">+</div>","fixation","","",""
"null","","html-keyboard-response","70","2.0.0","418778","0fsedrn20s7d3na","true","30","m&aumlnnlich","rechts","Deutsch","","","null","","","","","","
      <img class=""person-img"" src=""https://raw.githubusercontent.com/saramff/face-recognition-images/refs/heads/master//men/man_9.jpg"">
      <p class=""person-name"">Jonathan</p>
    ","","","",""
"null","","html-keyboard-response","71","2.0.0","419786","0fsedrn20s7d3na","true","30","m&aumlnnlich","rechts","Deutsch","","","null","","","","","","<div style=""font-size:60px;"">+</div>","fixation","","",""
"null","","html-keyboard-response","72","2.0.0","420792","0fsedrn20s7d3na","true","30","m&aumlnnlich","rechts","Deutsch","","","null","","","","","","
      <img class=""person-img"" src=""https://raw.githubusercontent.com/saramff/face-recognition-images/refs/heads/master//men/man_52.jpg"">
      <p class=""person-name"">Oskar</p>
    ","","","",""
"null","","html-keyboard-response","73","2.0.0","421801","0fsedrn20s7d3na","true","30","m&aumlnnlich","rechts","Deutsch","","","null","","","","","","<div style=""font-size:60px;"">+</div>","fixation","","",""
"null","","html-keyboard-response","74","2.0.0","422808","0fsedrn20s7d3na","true","30","m&aumlnnlich","rechts","Deutsch","","","null","","","","","","
      <img class=""person-img"" src=""https://raw.githubusercontent.com/saramff/face-recognition-images/refs/heads/master//men/man_7.jpg"">
      <p class=""person-name"">Karl</p>
    ","","","",""
"null","","html-keyboard-response","75","2.0.0","423816","0fsedrn20s7d3na","true","30","m&aumlnnlich","rechts","Deutsch","","","null","","","","","","<div style=""font-size:60px;"">+</div>","fixation","","",""
"null","","html-keyboard-response","76","2.0.0","424824","0fsedrn20s7d3na","true","30","m&aumlnnlich","rechts","Deutsch","","","null","","","","","","
      <img class=""person-img"" src=""https://raw.githubusercontent.com/saramff/face-recognition-images/refs/heads/master//women/woman_85.jpg"">
      <p class=""person-name"">Charlotte</p>
    ","","","",""
"null","","html-keyboard-response","77","2.0.0","425832","0fsedrn20s7d3na","true","30","m&aumlnnlich","rechts","Deutsch","","","null","","","","","","<div style=""font-size:60px;"">+</div>","fixation","","",""
"null","","html-keyboard-response","78","2.0.0","426838","0fsedrn20s7d3na","true","30","m&aumlnnlich","rechts","Deutsch","","","null","","","","","","
      <img class=""person-img"" src=""https://raw.githubusercontent.com/saramff/face-recognition-images/refs/heads/master//men/man_89.jpg"">
      <p class=""person-name"">Martin</p>
    ","","","",""
"null","","html-keyboard-response","79","2.0.0","427847","0fsedrn20s7d3na","true","30","m&aumlnnlich","rechts","Deutsch","","","null","","","","","","<div style=""font-size:60px;"">+</div>","fixation","","",""
"null","","html-keyboard-response","80","2.0.0","428853","0fsedrn20s7d3na","true","30","m&aumlnnlich","rechts","Deutsch","","","null","","","","","","
      <img class=""person-img"" src=""https://raw.githubusercontent.com/saramff/face-recognition-images/refs/heads/master//women/woman_84.jpg"">
      <p class=""person-name"">Ayla</p>
    ","","","",""
"null","","html-keyboard-response","81","2.0.0","429863","0fsedrn20s7d3na","true","30","m&aumlnnlich","rechts","Deutsch","","","null","","","","","","<div style=""font-size:60px;"">+</div>","fixation","","",""
"null","","html-keyboard-response","82","2.0.0","430868","0fsedrn20s7d3na","true","30","m&aumlnnlich","rechts","Deutsch","","","null","","","","","","
      <img class=""person-img"" src=""https://raw.githubusercontent.com/saramff/face-recognition-images/refs/heads/master//men/man_28.jpg"">
      <p class=""person-name"">Max</p>
    ","","","",""
"null","","html-keyboard-response","83","2.0.0","431877","0fsedrn20s7d3na","true","30","m&aumlnnlich","rechts","Deutsch","","","null","","","","","","<div style=""font-size:60px;"">+</div>","fixation","","",""
"null","","html-keyboard-response","84","2.0.0","432885","0fsedrn20s7d3na","true","30","m&aumlnnlich","rechts","Deutsch","","","null","","","","","","
      <img class=""person-img"" src=""https://raw.githubusercontent.com/saramff/face-recognition-images/refs/heads/master//men/man_31.jpg"">
      <p class=""person-name"">Marcel</p>
    ","","","",""
"null","","html-keyboard-response","85","2.0.0","433893","0fsedrn20s7d3na","true","30","m&aumlnnlich","rechts","Deutsch","","","null","","","","","","<div style=""font-size:60px;"">+</div>","fixation","","",""
"null","","html-keyboard-response","86","2.0.0","434901","0fsedrn20s7d3na","true","30","m&aumlnnlich","rechts","Deutsch","","","null","","","","","","
      <img class=""person-img"" src=""https://raw.githubusercontent.com/saramff/face-recognition-images/refs/heads/master//women/woman_43.jpg"">
      <p class=""person-name"">Valentina</p>
    ","","","",""
"null","","html-keyboard-response","87","2.0.0","435910","0fsedrn20s7d3na","true","30","m&aumlnnlich","rechts","Deutsch","","","null","","","","","","<div style=""font-size:60px;"">+</div>","fixation","","",""
"null","","html-keyboard-response","88","2.0.0","436916","0fsedrn20s7d3na","true","30","m&aumlnnlich","rechts","Deutsch","","","null","","","","","","
      <img class=""person-img"" src=""https://raw.githubusercontent.com/saramff/face-recognition-images/refs/heads/master//men/man_64.jpg"">
      <p class=""person-name"">Valentin</p>
    ","","","",""
"null","","html-keyboard-response","89","2.0.0","437924","0fsedrn20s7d3na","true","30","m&aumlnnlich","rechts","Deutsch","","","null","","","","","","<div style=""font-size:60px;"">+</div>","fixation","","",""
"null","","html-keyboard-response","90","2.0.0","438930","0fsedrn20s7d3na","true","30","m&aumlnnlich","rechts","Deutsch","","","null","","","","","","
      <img class=""person-img"" src=""https://raw.githubusercontent.com/saramff/face-recognition-images/refs/heads/master//men/man_16.jpg"">
      <p class=""person-name"">Elias</p>
    ","","","",""
"null","","html-keyboard-response","91","2.0.0","439939","0fsedrn20s7d3na","true","30","m&aumlnnlich","rechts","Deutsch","","","null","","","","","","<div style=""font-size:60px;"">+</div>","fixation","","",""
"null","","html-keyboard-response","92","2.0.0","440947","0fsedrn20s7d3na","true","30","m&aumlnnlich","rechts","Deutsch","","","null","","","","","","
      <img class=""person-img"" src=""https://raw.githubusercontent.com/saramff/face-recognition-images/refs/heads/master//men/man_93.jpg"">
      <p class=""person-name"">Paul</p>
    ","","","",""
"null","","html-keyboard-response","93","2.0.0","441955","0fsedrn20s7d3na","true","30","m&aumlnnlich","rechts","Deutsch","","","null","","","","","","<div style=""font-size:60px;"">+</div>","fixation","","",""
"null","","html-keyboard-response","94","2.0.0","442962","0fsedrn20s7d3na","true","30","m&aumlnnlich","rechts","Deutsch","","","null","","","","","","
      <img class=""person-img"" src=""https://raw.githubusercontent.com/saramff/face-recognition-images/refs/heads/master//men/man_61.jpg"">
      <p class=""person-name"">Aaron</p>
    ","","","",""
"null","","html-keyboard-response","95","2.0.0","443971","0fsedrn20s7d3na","true","30","m&aumlnnlich","rechts","Deutsch","","","null","","","","","","<div style=""font-size:60px;"">+</div>","fixation","","",""
"null","","html-keyboard-response","96","2.0.0","444978","0fsedrn20s7d3na","true","30","m&aumlnnlich","rechts","Deutsch","","","null","","","","","","
      <img class=""person-img"" src=""https://raw.githubusercontent.com/saramff/face-recognition-images/refs/heads/master//men/man_59.jpg"">
      <p class=""person-name"">Heiko</p>
    ","","","",""
"null","","html-keyboard-response","97","2.0.0","445985","0fsedrn20s7d3na","true","30","m&aumlnnlich","rechts","Deutsch","","","null","","","","","","<div style=""font-size:60px;"">+</div>","fixation","","",""
"null","","html-keyboard-response","98","2.0.0","446992","0fsedrn20s7d3na","true","30","m&aumlnnlich","rechts","Deutsch","","","null","","","","","","
      <img class=""person-img"" src=""https://raw.githubusercontent.com/saramff/face-recognition-images/refs/heads/master//women/woman_79.jpg"">
      <p class=""person-name"">Anja</p>
    ","","","",""
"null","","html-keyboard-response","99","2.0.0","448001","0fsedrn20s7d3na","true","30","m&aumlnnlich","rechts","Deutsch","","","null","","","","","","<div style=""font-size:60px;"">+</div>","fixation","","",""
"null","","html-keyboard-response","100","2.0.0","449008","0fsedrn20s7d3na","true","30","m&aumlnnlich","rechts","Deutsch","","","null","","","","","","
      <img class=""person-img"" src=""https://raw.githubusercontent.com/saramff/face-recognition-images/refs/heads/master//women/woman_51.jpg"">
      <p class=""person-name"">Malou</p>
    ","","","",""
"null","","html-keyboard-response","101","2.0.0","450016","0fsedrn20s7d3na","true","30","m&aumlnnlich","rechts","Deutsch","","","null","","","","","","<div style=""font-size:60px;"">+</div>","fixation","","",""
"null","","html-keyboard-response","102","2.0.0","451023","0fsedrn20s7d3na","true","30","m&aumlnnlich","rechts","Deutsch","","","null","","","","","","
      <img class=""person-img"" src=""https://raw.githubusercontent.com/saramff/face-recognition-images/refs/heads/master//women/woman_20.jpg"">
      <p class=""person-name"">Lena</p>
    ","","","",""
"null","","html-keyboard-response","103","2.0.0","452032","0fsedrn20s7d3na","true","30","m&aumlnnlich","rechts","Deutsch","","","null","","","","","","<div style=""font-size:60px;"">+</div>","fixation","","",""
"null","","html-keyboard-response","104","2.0.0","453037","0fsedrn20s7d3na","true","30","m&aumlnnlich","rechts","Deutsch","","","null","","","","","","
      <img class=""person-img"" src=""https://raw.githubusercontent.com/saramff/face-recognition-images/refs/heads/master//men/man_8.jpg"">
      <p class=""person-name"">Theodor</p>
    ","","","",""
"null","","html-keyboard-response","105","2.0.0","454045","0fsedrn20s7d3na","true","30","m&aumlnnlich","rechts","Deutsch","","","null","","","","","","<div style=""font-size:60px;"">+</div>","fixation","","",""
"null","","html-keyboard-response","106","2.0.0","455054","0fsedrn20s7d3na","true","30","m&aumlnnlich","rechts","Deutsch","","","null","","","","","","
      <img class=""person-img"" src=""https://raw.githubusercontent.com/saramff/face-recognition-images/refs/heads/master//men/man_44.jpg"">
      <p class=""person-name"">Viktor</p>
    ","","","",""
"null","","html-keyboard-response","107","2.0.0","456062","0fsedrn20s7d3na","true","30","m&aumlnnlich","rechts","Deutsch","","","null","","","","","","<div style=""font-size:60px;"">+</div>","fixation","","",""
"null","","html-keyboard-response","108","2.0.0","457072","0fsedrn20s7d3na","true","30","m&aumlnnlich","rechts","Deutsch","","","null","","","","","","
      <img class=""person-img"" src=""https://raw.githubusercontent.com/saramff/face-recognition-images/refs/heads/master//men/man_85.jpg"">
      <p class=""person-name"">Jakob</p>
    ","","","",""
"null","","html-keyboard-response","109","2.0.0","458078","0fsedrn20s7d3na","true","30","m&aumlnnlich","rechts","Deutsch","","","null","","","","","","<div style=""font-size:60px;"">+</div>","fixation","","",""
"null","","html-keyboard-response","110","2.0.0","459086","0fsedrn20s7d3na","true","30","m&aumlnnlich","rechts","Deutsch","","","null","","","","","","
      <img class=""person-img"" src=""https://raw.githubusercontent.com/saramff/face-recognition-images/refs/heads/master//men/man_67.jpg"">
      <p class=""person-name"">Johannes</p>
    ","","","",""
"null","","html-keyboard-response","111","2.0.0","460094","0fsedrn20s7d3na","true","30","m&aumlnnlich","rechts","Deutsch","","","null","","","","","","<div style=""font-size:60px;"">+</div>","fixation","","",""
"null","","html-keyboard-response","112","2.0.0","461101","0fsedrn20s7d3na","true","30","m&aumlnnlich","rechts","Deutsch","","","null","","","","","","
      <img class=""person-img"" src=""https://raw.githubusercontent.com/saramff/face-recognition-images/refs/heads/master//men/man_80.jpg"">
      <p class=""person-name"">Konrad</p>
    ","","","",""
"null","","html-keyboard-response","113","2.0.0","462110","0fsedrn20s7d3na","true","30","m&aumlnnlich","rechts","Deutsch","","","null","","","","","","<div style=""font-size:60px;"">+</div>","fixation","","",""
"null","","html-keyboard-response","114","2.0.0","463117","0fsedrn20s7d3na","true","30","m&aumlnnlich","rechts","Deutsch","","","null","","","","","","
      <img class=""person-img"" src=""https://raw.githubusercontent.com/saramff/face-recognition-images/refs/heads/master//women/woman_80.jpg"">
      <p class=""person-name"">Lotte</p>
    ","","","",""
"null","","html-keyboard-response","115","2.0.0","464123","0fsedrn20s7d3na","true","30","m&aumlnnlich","rechts","Deutsch","","","null","","","","","","<div style=""font-size:60px;"">+</div>","fixation","","",""
"null","","html-keyboard-response","116","2.0.0","465132","0fsedrn20s7d3na","true","30","m&aumlnnlich","rechts","Deutsch","","","null","","","","","","
      <img class=""person-img"" src=""https://raw.githubusercontent.com/saramff/face-recognition-images/refs/heads/master//men/man_32.jpg"">
      <p class=""person-name"">Thomas</p>
    ","","","",""
"null","","html-keyboard-response","117","2.0.0","466157","0fsedrn20s7d3na","true","30","m&aumlnnlich","rechts","Deutsch","","","null","","","","","","<div style=""font-size:60px;"">+</div>","fixation","","",""
"null","","html-keyboard-response","118","2.0.0","467164","0fsedrn20s7d3na","true","30","m&aumlnnlich","rechts","Deutsch","","","null","","","","","","
      <img class=""person-img"" src=""https://raw.githubusercontent.com/saramff/face-recognition-images/refs/heads/master//women/woman_65.jpg"">
      <p class=""person-name"">Tabea</p>
    ","","","",""
"null","","html-keyboard-response","119","2.0.0","468172","0fsedrn20s7d3na","true","30","m&aumlnnlich","rechts","Deutsch","","","null","","","","","","<div style=""font-size:60px;"">+</div>","fixation","","",""
"null","","html-keyboard-response","120","2.0.0","469180","0fsedrn20s7d3na","true","30","m&aumlnnlich","rechts","Deutsch","","","null","","","","","","
      <img class=""person-img"" src=""https://raw.githubusercontent.com/saramff/face-recognition-images/refs/heads/master//men/man_69.jpg"">
      <p class=""person-name"">Andreas</p>
    ","","","",""
"null","","html-keyboard-response","121","2.0.0","470186","0fsedrn20s7d3na","true","30","m&aumlnnlich","rechts","Deutsch","","","null","","","","","","<div style=""font-size:60px;"">+</div>","fixation","","",""
"null","","html-keyboard-response","122","2.0.0","471194","0fsedrn20s7d3na","true","30","m&aumlnnlich","rechts","Deutsch","","","null","","","","","","
      <img class=""person-img"" src=""https://raw.githubusercontent.com/saramff/face-recognition-images/refs/heads/master//men/man_26.jpg"">
      <p class=""person-name"">Emil</p>
    ","","","",""
"null","","html-keyboard-response","123","2.0.0","472202","0fsedrn20s7d3na","true","30","m&aumlnnlich","rechts","Deutsch","","","null","","","","","","<div style=""font-size:60px;"">+</div>","fixation","","",""
"null","","html-keyboard-response","124","2.0.0","473211","0fsedrn20s7d3na","true","30","m&aumlnnlich","rechts","Deutsch","","","null","","","","","","
      <img class=""person-img"" src=""https://raw.githubusercontent.com/saramff/face-recognition-images/refs/heads/master//women/woman_62.jpg"">
      <p class=""person-name"">Neele</p>
    ","","","",""
"null","","html-keyboard-response","125","2.0.0","474218","0fsedrn20s7d3na","true","30","m&aumlnnlich","rechts","Deutsch","","","null","","","","","","<div style=""font-size:60px;"">+</div>","fixation","","",""
"null","","html-keyboard-response","126","2.0.0","475225","0fsedrn20s7d3na","true","30","m&aumlnnlich","rechts","Deutsch","","","null","","","","","","
      <img class=""person-img"" src=""https://raw.githubusercontent.com/saramff/face-recognition-images/refs/heads/master//men/man_94.jpg"">
      <p class=""person-name"">Leon</p>
    ","","","",""
"null","","html-keyboard-response","127","2.0.0","476232","0fsedrn20s7d3na","true","30","m&aumlnnlich","rechts","Deutsch","","","null","","","","","","<div style=""font-size:60px;"">+</div>","fixation","","",""
"null","","html-keyboard-response","128","2.0.0","477241","0fsedrn20s7d3na","true","30","m&aumlnnlich","rechts","Deutsch","","","null","","","","","","
      <img class=""person-img"" src=""https://raw.githubusercontent.com/saramff/face-recognition-images/refs/heads/master//women/woman_73.jpg"">
      <p class=""person-name"">Livia</p>
    ","","","",""
"null","","html-keyboard-response","129","2.0.0","478249","0fsedrn20s7d3na","true","30","m&aumlnnlich","rechts","Deutsch","","","null","","","","","","<div style=""font-size:60px;"">+</div>","fixation","","",""
"null","","html-keyboard-response","130","2.0.0","479256","0fsedrn20s7d3na","true","30","m&aumlnnlich","rechts","Deutsch","","","null","","","","","","
      <img class=""person-img"" src=""https://raw.githubusercontent.com/saramff/face-recognition-images/refs/heads/master//men/man_74.jpg"">
      <p class=""person-name"">Jens</p>
    ","","","",""
"null","","html-keyboard-response","131","2.0.0","480265","0fsedrn20s7d3na","true","30","m&aumlnnlich","rechts","Deutsch","","","null","","","","","","<div style=""font-size:60px;"">+</div>","fixation","","",""
"null","","html-keyboard-response","132","2.0.0","481273","0fsedrn20s7d3na","true","30","m&aumlnnlich","rechts","Deutsch","","","null","","","","","","
      <img class=""person-img"" src=""https://raw.githubusercontent.com/saramff/face-recognition-images/refs/heads/master//women/woman_77.jpg"">
      <p class=""person-name"">Aurelia</p>
    ","","","",""
"null","","html-keyboard-response","133","2.0.0","482280","0fsedrn20s7d3na","true","30","m&aumlnnlich","rechts","Deutsch","","","null","","","","","","<div style=""font-size:60px;"">+</div>","fixation","","",""
"null","","html-keyboard-response","134","2.0.0","483288","0fsedrn20s7d3na","true","30","m&aumlnnlich","rechts","Deutsch","","","null","","","","","","
      <img class=""person-img"" src=""https://raw.githubusercontent.com/saramff/face-recognition-images/refs/heads/master//women/woman_89.jpg"">
      <p class=""person-name"">Leonie</p>
    ","","","",""
"null","","html-keyboard-response","135","2.0.0","484297","0fsedrn20s7d3na","true","30","m&aumlnnlich","rechts","Deutsch","","","null","","","","","","<div style=""font-size:60px;"">+</div>","fixation","","",""
"null","","html-keyboard-response","136","2.0.0","485305","0fsedrn20s7d3na","true","30","m&aumlnnlich","rechts","Deutsch","","","null","","","","","","
      <img class=""person-img"" src=""https://raw.githubusercontent.com/saramff/face-recognition-images/refs/heads/master//women/woman_15.jpg"">
      <p class=""person-name"">Hannah</p>
    ","","","",""
"null","","html-keyboard-response","137","2.0.0","486311","0fsedrn20s7d3na","true","30","m&aumlnnlich","rechts","Deutsch","","","null","","","","","","<div style=""font-size:60px;"">+</div>","fixation","","",""
"null","","html-keyboard-response","138","2.0.0","487318","0fsedrn20s7d3na","true","30","m&aumlnnlich","rechts","Deutsch","","","null","","","","","","
      <img class=""person-img"" src=""https://raw.githubusercontent.com/saramff/face-recognition-images/refs/heads/master//women/woman_49.jpg"">
      <p class=""person-name"">Michaela</p>
    ","","","",""
"null","","html-keyboard-response","139","2.0.0","488327","0fsedrn20s7d3na","true","30","m&aumlnnlich","rechts","Deutsch","","","null","","","","","","<div style=""font-size:60px;"">+</div>","fixation","","",""
"null","","html-keyboard-response","140","2.0.0","489334","0fsedrn20s7d3na","true","30","m&aumlnnlich","rechts","Deutsch","","","null","","","","","","
      <img class=""person-img"" src=""https://raw.githubusercontent.com/saramff/face-recognition-images/refs/heads/master//men/man_27.jpg"">
      <p class=""person-name"">Guido</p>
    ","","","",""
"null","","html-keyboard-response","141","2.0.0","490344","0fsedrn20s7d3na","true","30","m&aumlnnlich","rechts","Deutsch","","","null","","","","","","<div style=""font-size:60px;"">+</div>","fixation","","",""
"null","","html-keyboard-response","142","2.0.0","491350","0fsedrn20s7d3na","true","30","m&aumlnnlich","rechts","Deutsch","","","null","","","","","","
      <img class=""person-img"" src=""https://raw.githubusercontent.com/saramff/face-recognition-images/refs/heads/master//men/man_75.jpg"">
      <p class=""person-name"">Rolf</p>
    ","","","",""
"null","","html-keyboard-response","143","2.0.0","492358","0fsedrn20s7d3na","true","30","m&aumlnnlich","rechts","Deutsch","","","null","","","","","","<div style=""font-size:60px;"">+</div>","fixation","","",""
"null","","html-keyboard-response","144","2.0.0","493366","0fsedrn20s7d3na","true","30","m&aumlnnlich","rechts","Deutsch","","","null","","","","","","
      <img class=""person-img"" src=""https://raw.githubusercontent.com/saramff/face-recognition-images/refs/heads/master//women/woman_47.jpg"">
      <p class=""person-name"">Selma</p>
    ","","","",""
"null","","html-keyboard-response","145","2.0.0","494373","0fsedrn20s7d3na","true","30","m&aumlnnlich","rechts","Deutsch","","","null","","","","","","<div style=""font-size:60px;"">+</div>","fixation","","",""
"null","","html-keyboard-response","146","2.0.0","495381","0fsedrn20s7d3na","true","30","m&aumlnnlich","rechts","Deutsch","","","null","","","","","","
      <img class=""person-img"" src=""https://raw.githubusercontent.com/saramff/face-recognition-images/refs/heads/master//women/woman_38.jpg"">
      <p class=""person-name"">Frauke</p>
    ","","","",""
"null","","html-keyboard-response","147","2.0.0","496389","0fsedrn20s7d3na","true","30","m&aumlnnlich","rechts","Deutsch","","","null","","","","","","<div style=""font-size:60px;"">+</div>","fixation","","",""
"null","","html-keyboard-response","148","2.0.0","497396","0fsedrn20s7d3na","true","30","m&aumlnnlich","rechts","Deutsch","","","null","","","","","","
      <img class=""person-img"" src=""https://raw.githubusercontent.com/saramff/face-recognition-images/refs/heads/master//women/woman_17.jpg"">
      <p class=""person-name"">Carina</p>
    ","","","",""
"null","","html-keyboard-response","149","2.0.0","498404","0fsedrn20s7d3na","true","30","m&aumlnnlich","rechts","Deutsch","","","null","","","","","","<div style=""font-size:60px;"">+</div>","fixation","","",""
"null","","html-keyboard-response","150","2.0.0","499412","0fsedrn20s7d3na","true","30","m&aumlnnlich","rechts","Deutsch","","","null","","","","","","
      <img class=""person-img"" src=""https://raw.githubusercontent.com/saramff/face-recognition-images/refs/heads/master//women/woman_25.jpg"">
      <p class=""person-name"">Marta</p>
    ","","","",""
"null","","html-keyboard-response","151","2.0.0","500421","0fsedrn20s7d3na","true","30","m&aumlnnlich","rechts","Deutsch","","","null","","","","","","<div style=""font-size:60px;"">+</div>","fixation","","",""
"null","","html-keyboard-response","152","2.0.0","501429","0fsedrn20s7d3na","true","30","m&aumlnnlich","rechts","Deutsch","","","null","","","","","","
      <img class=""person-img"" src=""https://raw.githubusercontent.com/saramff/face-recognition-images/refs/heads/master//men/man_38.jpg"">
      <p class=""person-name"">Oliver</p>
    ","","","",""
"null","","html-keyboard-response","153","2.0.0","502436","0fsedrn20s7d3na","true","30","m&aumlnnlich","rechts","Deutsch","","","null","","","","","","<div style=""font-size:60px;"">+</div>","fixation","","",""
"null","","html-keyboard-response","154","2.0.0","503443","0fsedrn20s7d3na","true","30","m&aumlnnlich","rechts","Deutsch","","","null","","","","","","
      <img class=""person-img"" src=""https://raw.githubusercontent.com/saramff/face-recognition-images/refs/heads/master//women/woman_18.jpg"">
      <p class=""person-name"">Celine</p>
    ","","","",""
"null","","html-keyboard-response","155","2.0.0","504452","0fsedrn20s7d3na","true","30","m&aumlnnlich","rechts","Deutsch","","","null","","","","","","<div style=""font-size:60px;"">+</div>","fixation","","",""
"null","","html-keyboard-response","156","2.0.0","505460","0fsedrn20s7d3na","true","30","m&aumlnnlich","rechts","Deutsch","","","null","","","","","","
      <img class=""person-img"" src=""https://raw.githubusercontent.com/saramff/face-recognition-images/refs/heads/master//women/woman_50.jpg"">
      <p class=""person-name"">Carla</p>
    ","","","",""
"null","","html-keyboard-response","157","2.0.0","506469","0fsedrn20s7d3na","true","30","m&aumlnnlich","rechts","Deutsch","","","null","","","","","","<div style=""font-size:60px;"">+</div>","fixation","","",""
"null","","html-keyboard-response","158","2.0.0","507477","0fsedrn20s7d3na","true","30","m&aumlnnlich","rechts","Deutsch","","","null","","","","","","
      <img class=""person-img"" src=""https://raw.githubusercontent.com/saramff/face-recognition-images/refs/heads/master//women/woman_46.jpg"">
      <p class=""person-name"">Olivia</p>
    ","","","",""
"null","","html-keyboard-response","159","2.0.0","508486","0fsedrn20s7d3na","true","30","m&aumlnnlich","rechts","Deutsch","","","null","","","","","","<div style=""font-size:60px;"">+</div>","fixation","","",""
"null","","html-keyboard-response","160","2.0.0","509494","0fsedrn20s7d3na","true","30","m&aumlnnlich","rechts","Deutsch","","","null","","","","","","
      <img class=""person-img"" src=""https://raw.githubusercontent.com/saramff/face-recognition-images/refs/heads/master//women/woman_32.jpg"">
      <p class=""person-name"">Paulina</p>
    ","","","",""
"null","","html-keyboard-response","161","2.0.0","510499","0fsedrn20s7d3na","true","30","m&aumlnnlich","rechts","Deutsch","","","null","","","","","","<div style=""font-size:60px;"">+</div>","fixation","","",""
"null","","html-keyboard-response","162","2.0.0","511508","0fsedrn20s7d3na","true","30","m&aumlnnlich","rechts","Deutsch","","","null","","","","","","
      <img class=""person-img"" src=""https://raw.githubusercontent.com/saramff/face-recognition-images/refs/heads/master//men/man_77.jpg"">
      <p class=""person-name"">Hendrik</p>
    ","","","",""
"null","","html-keyboard-response","163","2.0.0","512516","0fsedrn20s7d3na","true","30","m&aumlnnlich","rechts","Deutsch","","","null","","","","","","<div style=""font-size:60px;"">+</div>","fixation","","",""
"null","","html-keyboard-response","164","2.0.0","513524","0fsedrn20s7d3na","true","30","m&aumlnnlich","rechts","Deutsch","","","null","","","","","","
      <img class=""person-img"" src=""https://raw.githubusercontent.com/saramff/face-recognition-images/refs/heads/master//men/man_62.jpg"">
      <p class=""person-name"">Ruben</p>
    ","","","",""
"null","","html-keyboard-response","165","2.0.0","514532","0fsedrn20s7d3na","true","30","m&aumlnnlich","rechts","Deutsch","","","null","","","","","","<div style=""font-size:60px;"">+</div>","fixation","","",""
"null","","html-keyboard-response","166","2.0.0","515540","0fsedrn20s7d3na","true","30","m&aumlnnlich","rechts","Deutsch","","","null","","","","","","
      <img class=""person-img"" src=""https://raw.githubusercontent.com/saramff/face-recognition-images/refs/heads/master//men/man_92.jpg"">
      <p class=""person-name"">Ren&eacute;</p>
    ","","","",""
"null","","html-keyboard-response","167","2.0.0","516560","0fsedrn20s7d3na","true","30","m&aumlnnlich","rechts","Deutsch","","","null","","","","","","<div style=""font-size:60px;"">+</div>","fixation","","",""
"null","","html-keyboard-response","168","2.0.0","517571","0fsedrn20s7d3na","true","30","m&aumlnnlich","rechts","Deutsch","","","null","","","","","","
      <img class=""person-img"" src=""https://raw.githubusercontent.com/saramff/face-recognition-images/refs/heads/master//women/woman_2.jpg"">
      <p class=""person-name"">Beate</p>
    ","","","",""
"null","","html-keyboard-response","169","2.0.0","518578","0fsedrn20s7d3na","true","30","m&aumlnnlich","rechts","Deutsch","","","null","","","","","","<div style=""font-size:60px;"">+</div>","fixation","","",""
"null","","html-keyboard-response","170","2.0.0","519586","0fsedrn20s7d3na","true","30","m&aumlnnlich","rechts","Deutsch","","","null","","","","","","
      <img class=""person-img"" src=""https://raw.githubusercontent.com/saramff/face-recognition-images/refs/heads/master//men/man_13.jpg"">
      <p class=""person-name"">Paul</p>
    ","","","",""
"null","","html-keyboard-response","171","2.0.0","520593","0fsedrn20s7d3na","true","30","m&aumlnnlich","rechts","Deutsch","","","null","","","","","","<div style=""font-size:60px;"">+</div>","fixation","","",""
"null","","html-keyboard-response","172","2.0.0","521595","0fsedrn20s7d3na","true","30","m&aumlnnlich","rechts","Deutsch","","","null","","","","","","
      <img class=""person-img"" src=""https://raw.githubusercontent.com/saramff/face-recognition-images/refs/heads/master//men/man_41.jpg"">
      <p class=""person-name"">Robin</p>
    ","","","",""
"null","","html-keyboard-response","173","2.0.0","522606","0fsedrn20s7d3na","true","30","m&aumlnnlich","rechts","Deutsch","","","null","","","","","","<div style=""font-size:60px;"">+</div>","fixation","","",""
"null","","html-keyboard-response","174","2.0.0","523614","0fsedrn20s7d3na","true","30","m&aumlnnlich","rechts","Deutsch","","","null","","","","","","
      <img class=""person-img"" src=""https://raw.githubusercontent.com/saramff/face-recognition-images/refs/heads/master//men/man_96.jpg"">
      <p class=""person-name"">Ingo</p>
    ","","","",""
"null","","html-keyboard-response","175","2.0.0","524622","0fsedrn20s7d3na","true","30","m&aumlnnlich","rechts","Deutsch","","","null","","","","","","<div style=""font-size:60px;"">+</div>","fixation","","",""
"null","","html-keyboard-response","176","2.0.0","525630","0fsedrn20s7d3na","true","30","m&aumlnnlich","rechts","Deutsch","","","null","","","","","","
      <img class=""person-img"" src=""https://raw.githubusercontent.com/saramff/face-recognition-images/refs/heads/master//women/woman_35.jpg"">
      <p class=""person-name"">Ronja</p>
    ","","","",""
"null","","html-keyboard-response","177","2.0.0","526638","0fsedrn20s7d3na","true","30","m&aumlnnlich","rechts","Deutsch","","","null","","","","","","<div style=""font-size:60px;"">+</div>","fixation","","",""
"null","","html-keyboard-response","178","2.0.0","527645","0fsedrn20s7d3na","true","30","m&aumlnnlich","rechts","Deutsch","","","null","","","","","","
      <img class=""person-img"" src=""https://raw.githubusercontent.com/saramff/face-recognition-images/refs/heads/master//women/woman_30.jpg"">
      <p class=""person-name"">Maja</p>
    ","","","",""
"null","","html-keyboard-response","179","2.0.0","528652","0fsedrn20s7d3na","true","30","m&aumlnnlich","rechts","Deutsch","","","null","","","","","","<div style=""font-size:60px;"">+</div>","fixation","","",""
"null","","html-keyboard-response","180","2.0.0","529660","0fsedrn20s7d3na","true","30","m&aumlnnlich","rechts","Deutsch","","","null","","","","","","
      <img class=""person-img"" src=""https://raw.githubusercontent.com/saramff/face-recognition-images/refs/heads/master//women/woman_42.jpg"">
      <p class=""person-name"">Pia</p>
    ","","","",""
"null","","html-keyboard-response","181","2.0.0","530668","0fsedrn20s7d3na","true","30","m&aumlnnlich","rechts","Deutsch","","","null","","","","","","<div style=""font-size:60px;"">+</div>","fixation","","",""
"null","","html-keyboard-response","182","2.0.0","531676","0fsedrn20s7d3na","true","30","m&aumlnnlich","rechts","Deutsch","","","null","","","","","","
      <img class=""person-img"" src=""https://raw.githubusercontent.com/saramff/face-recognition-images/refs/heads/master//women/woman_19.jpg"">
      <p class=""person-name"">Nadine</p>
    ","","","",""
"null","","html-keyboard-response","183","2.0.0","532683","0fsedrn20s7d3na","true","30","m&aumlnnlich","rechts","Deutsch","","","null","","","","","","<div style=""font-size:60px;"">+</div>","fixation","","",""
"null","","html-keyboard-response","184","2.0.0","533692","0fsedrn20s7d3na","true","30","m&aumlnnlich","rechts","Deutsch","","","null","","","","","","
      <img class=""person-img"" src=""https://raw.githubusercontent.com/saramff/face-recognition-images/refs/heads/master//women/woman_82.jpg"">
      <p class=""person-name"">Nicole</p>
    ","","","",""
"null","","html-keyboard-response","185","2.0.0","534700","0fsedrn20s7d3na","true","30","m&aumlnnlich","rechts","Deutsch","","","null","","","","","","<div style=""font-size:60px;"">+</div>","fixation","","",""
"null","","html-keyboard-response","186","2.0.0","535705","0fsedrn20s7d3na","true","30","m&aumlnnlich","rechts","Deutsch","","","null","","","","","","
      <img class=""person-img"" src=""https://raw.githubusercontent.com/saramff/face-recognition-images/refs/heads/master//men/man_60.jpg"">
      <p class=""person-name"">Marius</p>
    ","","","",""
"null","","html-keyboard-response","187","2.0.0","536712","0fsedrn20s7d3na","true","30","m&aumlnnlich","rechts","Deutsch","","","null","","","","","","<div style=""font-size:60px;"">+</div>","fixation","","",""
"null","","html-keyboard-response","188","2.0.0","537720","0fsedrn20s7d3na","true","30","m&aumlnnlich","rechts","Deutsch","","","null","","","","","","
      <img class=""person-img"" src=""https://raw.githubusercontent.com/saramff/face-recognition-images/refs/heads/master//women/woman_11.jpg"">
      <p class=""person-name"">Helena</p>
    ","","","",""
"null","","html-keyboard-response","189","2.0.0","538728","0fsedrn20s7d3na","true","30","m&aumlnnlich","rechts","Deutsch","","","null","","","","","","<div style=""font-size:60px;"">+</div>","fixation","","",""
"null","","html-keyboard-response","190","2.0.0","539736","0fsedrn20s7d3na","true","30","m&aumlnnlich","rechts","Deutsch","","","null","","","","","","
      <img class=""person-img"" src=""https://raw.githubusercontent.com/saramff/face-recognition-images/refs/heads/master//women/woman_59.jpg"">
      <p class=""person-name"">Ella</p>
    ","","","",""
"null","","html-keyboard-response","191","2.0.0","540743","0fsedrn20s7d3na","true","30","m&aumlnnlich","rechts","Deutsch","","","null","","","","","","<div style=""font-size:60px;"">+</div>","fixation","","",""
"null","","html-keyboard-response","192","2.0.0","541751","0fsedrn20s7d3na","true","30","m&aumlnnlich","rechts","Deutsch","","","null","","","","","","
      <img class=""person-img"" src=""https://raw.githubusercontent.com/saramff/face-recognition-images/refs/heads/master//women/woman_14.jpg"">
      <p class=""person-name"">Anouk</p>
    ","","","",""
"null","","html-keyboard-response","193","2.0.0","542759","0fsedrn20s7d3na","true","30","m&aumlnnlich","rechts","Deutsch","","","null","","","","","","<div style=""font-size:60px;"">+</div>","fixation","","",""
"null","","html-keyboard-response","194","2.0.0","543765","0fsedrn20s7d3na","true","30","m&aumlnnlich","rechts","Deutsch","","","null","","","","","","
      <img class=""person-img"" src=""https://raw.githubusercontent.com/saramff/face-recognition-images/refs/heads/master//women/woman_67.jpg"">
      <p class=""person-name"">Lilly</p>
    ","","","",""
"null","","html-keyboard-response","195","2.0.0","544773","0fsedrn20s7d3na","true","30","m&aumlnnlich","rechts","Deutsch","","","null","","","","","","<div style=""font-size:60px;"">+</div>","fixation","","",""
"null","","html-keyboard-response","196","2.0.0","545780","0fsedrn20s7d3na","true","30","m&aumlnnlich","rechts","Deutsch","","","null","","","","","","
      <img class=""person-img"" src=""https://raw.githubusercontent.com/saramff/face-recognition-images/refs/heads/master//men/man_71.jpg"">
      <p class=""person-name"">Holger</p>
    ","","","",""
"null","","html-keyboard-response","197","2.0.0","546787","0fsedrn20s7d3na","true","30","m&aumlnnlich","rechts","Deutsch","","","null","","","","","","<div style=""font-size:60px;"">+</div>","fixation","","",""
"null","","html-keyboard-response","198","2.0.0","547796","0fsedrn20s7d3na","true","30","m&aumlnnlich","rechts","Deutsch","","","null","","","","","","
      <img class=""person-img"" src=""https://raw.githubusercontent.com/saramff/face-recognition-images/refs/heads/master//women/woman_60.jpg"">
      <p class=""person-name"">Sarah</p>
    ","","","",""
"null","","html-keyboard-response","199","2.0.0","548803","0fsedrn20s7d3na","true","30","m&aumlnnlich","rechts","Deutsch","","","null","","","","","","<div style=""font-size:60px;"">+</div>","fixation","","",""
"null","","html-keyboard-response","200","2.0.0","549809","0fsedrn20s7d3na","true","30","m&aumlnnlich","rechts","Deutsch","","","null","","","","","","
      <img class=""person-img"" src=""https://raw.githubusercontent.com/saramff/face-recognition-images/refs/heads/master//women/woman_29.jpg"">
      <p class=""person-name"">Elly</p>
    ","","","",""
"null","","html-keyboard-response","201","2.0.0","550817","0fsedrn20s7d3na","true","30","m&aumlnnlich","rechts","Deutsch","","","null","","","","","","<div style=""font-size:60px;"">+</div>","fixation","","",""
"null","","html-keyboard-response","202","2.0.0","551823","0fsedrn20s7d3na","true","30","m&aumlnnlich","rechts","Deutsch","","","null","","","","","","
      <img class=""person-img"" src=""https://raw.githubusercontent.com/saramff/face-recognition-images/refs/heads/master//women/woman_7.jpg"">
      <p class=""person-name"">Sabrina</p>
    ","","","",""
"null","","html-keyboard-response","203","2.0.0","552831","0fsedrn20s7d3na","true","30","m&aumlnnlich","rechts","Deutsch","","","null","","","","","","<div style=""font-size:60px;"">+</div>","fixation","","",""
"null","","html-keyboard-response","204","2.0.0","553838","0fsedrn20s7d3na","true","30","m&aumlnnlich","rechts","Deutsch","","","null","","","","","","
      <img class=""person-img"" src=""https://raw.githubusercontent.com/saramff/face-recognition-images/refs/heads/master//men/man_1.jpg"">
      <p class=""person-name"">Achim</p>
    ","","","",""
"null","","html-keyboard-response","205","2.0.0","554846","0fsedrn20s7d3na","true","30","m&aumlnnlich","rechts","Deutsch","","","null","","","","","","<div style=""font-size:60px;"">+</div>","fixation","","",""
"null","","html-keyboard-response","206","2.0.0","555855","0fsedrn20s7d3na","true","30","m&aumlnnlich","rechts","Deutsch","","","null","","","","","","
      <img class=""person-img"" src=""https://raw.githubusercontent.com/saramff/face-recognition-images/refs/heads/master//women/woman_86.jpg"">
      <p class=""person-name"">Veronika</p>
    ","","","",""
"null","","html-keyboard-response","207","2.0.0","556862","0fsedrn20s7d3na","true","30","m&aumlnnlich","rechts","Deutsch","","","null","","","","","","<div style=""font-size:60px;"">+</div>","fixation","","",""
"null","","html-keyboard-response","208","2.0.0","557871","0fsedrn20s7d3na","true","30","m&aumlnnlich","rechts","Deutsch","","","null","","","","","","
      <img class=""person-img"" src=""https://raw.githubusercontent.com/saramff/face-recognition-images/refs/heads/master//women/woman_36.jpg"">
      <p class=""person-name"">Ida</p>
    ","","","",""
"null","","html-keyboard-response","209","2.0.0","558879","0fsedrn20s7d3na","true","30","m&aumlnnlich","rechts","Deutsch","","","null","","","","","","<div style=""font-size:60px;"">+</div>","fixation","","",""
"null","","html-keyboard-response","210","2.0.0","559887","0fsedrn20s7d3na","true","30","m&aumlnnlich","rechts","Deutsch","","","null","","","","","","
      <img class=""person-img"" src=""https://raw.githubusercontent.com/saramff/face-recognition-images/refs/heads/master//men/man_65.jpg"">
      <p class=""person-name"">Friedrich</p>
    ","","","",""
"null","","html-keyboard-response","211","2.0.0","560893","0fsedrn20s7d3na","true","30","m&aumlnnlich","rechts","Deutsch","","","null","","","","","","<div style=""font-size:60px;"">+</div>","fixation","","",""
"null","","html-keyboard-response","212","2.0.0","561900","0fsedrn20s7d3na","true","30","m&aumlnnlich","rechts","Deutsch","","","null","","","","","","
      <img class=""person-img"" src=""https://raw.githubusercontent.com/saramff/face-recognition-images/refs/heads/master//women/woman_75.jpg"">
      <p class=""person-name"">Lucie</p>
    ","","","",""
"null","","html-keyboard-response","213","2.0.0","562910","0fsedrn20s7d3na","true","30","m&aumlnnlich","rechts","Deutsch","","","null","","","","","","<div style=""font-size:60px;"">+</div>","fixation","","",""
"null","","html-keyboard-response","214","2.0.0","563917","0fsedrn20s7d3na","true","30","m&aumlnnlich","rechts","Deutsch","","","null","","","","","","
      <img class=""person-img"" src=""https://raw.githubusercontent.com/saramff/face-recognition-images/refs/heads/master//women/woman_58.jpg"">
      <p class=""person-name"">Marlene</p>
    ","","","",""
"null","","html-keyboard-response","215","2.0.0","564925","0fsedrn20s7d3na","true","30","m&aumlnnlich","rechts","Deutsch","","","null","","","","","","<div style=""font-size:60px;"">+</div>","fixation","","",""
"null","","html-keyboard-response","216","2.0.0","565933","0fsedrn20s7d3na","true","30","m&aumlnnlich","rechts","Deutsch","","","null","","","","","","
      <img class=""person-img"" src=""https://raw.githubusercontent.com/saramff/face-recognition-images/refs/heads/master//women/woman_92.jpg"">
      <p class=""person-name"">Katharina</p>
    ","","","",""
"null","","html-keyboard-response","217","2.0.0","566941","0fsedrn20s7d3na","true","30","m&aumlnnlich","rechts","Deutsch","","","null","","","","","","<div style=""font-size:60px;"">+</div>","fixation","","",""
"null","","html-keyboard-response","218","2.0.0","567948","0fsedrn20s7d3na","true","30","m&aumlnnlich","rechts","Deutsch","","","null","","","","","","
      <img class=""person-img"" src=""https://raw.githubusercontent.com/saramff/face-recognition-images/refs/heads/master//women/woman_68.jpg"">
      <p class=""person-name"">Yara</p>
    ","","","",""
"null","","html-keyboard-response","219","2.0.0","568956","0fsedrn20s7d3na","true","30","m&aumlnnlich","rechts","Deutsch","","","null","","","","","","<div style=""font-size:60px;"">+</div>","fixation","","",""
"null","","html-keyboard-response","220","2.0.0","569963","0fsedrn20s7d3na","true","30","m&aumlnnlich","rechts","Deutsch","","","null","","","","","","
      <img class=""person-img"" src=""https://raw.githubusercontent.com/saramff/face-recognition-images/refs/heads/master//women/woman_88.jpg"">
      <p class=""person-name"">Beate</p>
    ","","","",""
"null","","html-keyboard-response","221","2.0.0","570970","0fsedrn20s7d3na","true","30","m&aumlnnlich","rechts","Deutsch","","","null","","","","","","<div style=""font-size:60px;"">+</div>","fixation","","",""
"null","","html-keyboard-response","222","2.0.0","571975","0fsedrn20s7d3na","true","30","m&aumlnnlich","rechts","Deutsch","","","null","","","","","","
      <img class=""person-img"" src=""https://raw.githubusercontent.com/saramff/face-recognition-images/refs/heads/master//men/man_68.jpg"">
      <p class=""person-name"">Fabian</p>
    ","","","",""
"null","","html-keyboard-response","223","2.0.0","572983","0fsedrn20s7d3na","true","30","m&aumlnnlich","rechts","Deutsch","","","null","","","","","","<div style=""font-size:60px;"">+</div>","fixation","","",""
"null","","html-keyboard-response","224","2.0.0","573991","0fsedrn20s7d3na","true","30","m&aumlnnlich","rechts","Deutsch","","","null","","","","","","
      <img class=""person-img"" src=""https://raw.githubusercontent.com/saramff/face-recognition-images/refs/heads/master//women/woman_44.jpg"">
      <p class=""person-name"">Antonia</p>
    ","","","",""
"null","","html-keyboard-response","225","2.0.0","575000","0fsedrn20s7d3na","true","30","m&aumlnnlich","rechts","Deutsch","","","null","","","","","","<div style=""font-size:60px;"">+</div>","fixation","","",""
"null","","html-keyboard-response","226","2.0.0","576008","0fsedrn20s7d3na","true","30","m&aumlnnlich","rechts","Deutsch","","","null","","","","","","
      <img class=""person-img"" src=""https://raw.githubusercontent.com/saramff/face-recognition-images/refs/heads/master//women/woman_23.jpg"">
      <p class=""person-name"">Daniela</p>
    ","","","",""
"null","","html-keyboard-response","227","2.0.0","577015","0fsedrn20s7d3na","true","30","m&aumlnnlich","rechts","Deutsch","","","null","","","","","","<div style=""font-size:60px;"">+</div>","fixation","","",""
"null","","html-keyboard-response","228","2.0.0","578023","0fsedrn20s7d3na","true","30","m&aumlnnlich","rechts","Deutsch","","","null","","","","","","
      <img class=""person-img"" src=""https://raw.githubusercontent.com/saramff/face-recognition-images/refs/heads/master//men/man_3.jpg"">
      <p class=""person-name"">Simon</p>
    ","","","",""
"null","","html-keyboard-response","229","2.0.0","579031","0fsedrn20s7d3na","true","30","m&aumlnnlich","rechts","Deutsch","","","null","","","","","","<div style=""font-size:60px;"">+</div>","fixation","","",""
"null","","html-keyboard-response","230","2.0.0","580039","0fsedrn20s7d3na","true","30","m&aumlnnlich","rechts","Deutsch","","","null","","","","","","
      <img class=""person-img"" src=""https://raw.githubusercontent.com/saramff/face-recognition-images/refs/heads/master//men/man_84.jpg"">
      <p class=""person-name"">Richard</p>
    ","","","",""
"null","","html-keyboard-response","231","2.0.0","581047","0fsedrn20s7d3na","true","30","m&aumlnnlich","rechts","Deutsch","","","null","","","","","","<div style=""font-size:60px;"">+</div>","fixation","","",""
"null","","html-keyboard-response","232","2.0.0","582054","0fsedrn20s7d3na","true","30","m&aumlnnlich","rechts","Deutsch","","","null","","","","","","
      <img class=""person-img"" src=""https://raw.githubusercontent.com/saramff/face-recognition-images/refs/heads/master//women/woman_63.jpg"">
      <p class=""person-name"">Svenja</p>
    ","","","",""
"null","","html-keyboard-response","233","2.0.0","583061","0fsedrn20s7d3na","true","30","m&aumlnnlich","rechts","Deutsch","","","null","","","","","","<div style=""font-size:60px;"">+</div>","fixation","","",""
"null","","html-keyboard-response","234","2.0.0","584068","0fsedrn20s7d3na","true","30","m&aumlnnlich","rechts","Deutsch","","","null","","","","","","
      <img class=""person-img"" src=""https://raw.githubusercontent.com/saramff/face-recognition-images/refs/heads/master//women/woman_28.jpg"">
      <p class=""person-name"">Fiona</p>
    ","","","",""
"null","","html-keyboard-response","235","2.0.0","585075","0fsedrn20s7d3na","true","30","m&aumlnnlich","rechts","Deutsch","","","null","","","","","","<div style=""font-size:60px;"">+</div>","fixation","","",""
"null","","html-keyboard-response","236","2.0.0","586081","0fsedrn20s7d3na","true","30","m&aumlnnlich","rechts","Deutsch","","","null","","","","","","
      <img class=""person-img"" src=""https://raw.githubusercontent.com/saramff/face-recognition-images/refs/heads/master//men/man_15.jpg"">
      <p class=""person-name"">Anton</p>
    ","","","",""
"null","","html-keyboard-response","237","2.0.0","587090","0fsedrn20s7d3na","true","30","m&aumlnnlich","rechts","Deutsch","","","null","","","","","","<div style=""font-size:60px;"">+</div>","fixation","","",""
"null","","html-keyboard-response","238","2.0.0","588099","0fsedrn20s7d3na","true","30","m&aumlnnlich","rechts","Deutsch","","","null","","","","","","
      <img class=""person-img"" src=""https://raw.githubusercontent.com/saramff/face-recognition-images/refs/heads/master//women/woman_12.jpg"">
      <p class=""person-name"">Bianca</p>
    ","","","",""
"null","","html-keyboard-response","239","2.0.0","589105","0fsedrn20s7d3na","true","30","m&aumlnnlich","rechts","Deutsch","","","null","","","","","","<div style=""font-size:60px;"">+</div>","fixation","","",""
"null","","html-keyboard-response","240","2.0.0","590114","0fsedrn20s7d3na","true","30","m&aumlnnlich","rechts","Deutsch","","","null","","","","","","
      <img class=""person-img"" src=""https://raw.githubusercontent.com/saramff/face-recognition-images/refs/heads/master//men/man_6.jpg"">
      <p class=""person-name"">Lukas</p>
    ","","","",""
"null","","html-keyboard-response","241","2.0.0","591139","0fsedrn20s7d3na","true","30","m&aumlnnlich","rechts","Deutsch","","","null","","","","","","<div style=""font-size:60px;"">+</div>","fixation","","",""
"null","","html-keyboard-response","242","2.0.0","592148","0fsedrn20s7d3na","true","30","m&aumlnnlich","rechts","Deutsch","","","null","","","","","","
      <img class=""person-img"" src=""https://raw.githubusercontent.com/saramff/face-recognition-images/refs/heads/master//men/man_43.jpg"">
      <p class=""person-name"">Alexander</p>
    ","","","",""
"null","","html-keyboard-response","243","2.0.0","593154","0fsedrn20s7d3na","true","30","m&aumlnnlich","rechts","Deutsch","","","null","","","","","","<div style=""font-size:60px;"">+</div>","fixation","","",""
"null","","html-keyboard-response","244","2.0.0","594163","0fsedrn20s7d3na","true","30","m&aumlnnlich","rechts","Deutsch","","","null","","","","","","
      <img class=""person-img"" src=""https://raw.githubusercontent.com/saramff/face-recognition-images/refs/heads/master//women/woman_81.jpg"">
      <p class=""person-name"">Alma</p>
    ","","","",""
"null","","html-keyboard-response","245","2.0.0","595170","0fsedrn20s7d3na","true","30","m&aumlnnlich","rechts","Deutsch","","","null","","","","","","<div style=""font-size:60px;"">+</div>","fixation","","",""
"null","","html-keyboard-response","246","2.0.0","596178","0fsedrn20s7d3na","true","30","m&aumlnnlich","rechts","Deutsch","","","null","","","","","","
      <img class=""person-img"" src=""https://raw.githubusercontent.com/saramff/face-recognition-images/refs/heads/master//women/woman_34.jpg"">
      <p class=""person-name"">Theresa</p>
    ","","","",""
"null","","html-keyboard-response","247","2.0.0","597184","0fsedrn20s7d3na","true","30","m&aumlnnlich","rechts","Deutsch","","","null","","","","","","<div style=""font-size:60px;"">+</div>","fixation","","",""
"null","","html-keyboard-response","248","2.0.0","598192","0fsedrn20s7d3na","true","30","m&aumlnnlich","rechts","Deutsch","","","null","","","","","","
      <img class=""person-img"" src=""https://raw.githubusercontent.com/saramff/face-recognition-images/refs/heads/master//women/woman_41.jpg"">
      <p class=""person-name"">Janina</p>
    ","","","",""
"null","","html-keyboard-response","249","2.0.0","599200","0fsedrn20s7d3na","true","30","m&aumlnnlich","rechts","Deutsch","","","null","","","","","","<div style=""font-size:60px;"">+</div>","fixation","","",""
"null","","html-keyboard-response","250","2.0.0","600209","0fsedrn20s7d3na","true","30","m&aumlnnlich","rechts","Deutsch","","","null","","","","","","
      <img class=""person-img"" src=""https://raw.githubusercontent.com/saramff/face-recognition-images/refs/heads/master//women/woman_37.jpg"">
      <p class=""person-name"">Rosalie</p>
    ","","","",""
"null","","html-keyboard-response","251","2.0.0","601215","0fsedrn20s7d3na","true","30","m&aumlnnlich","rechts","Deutsch","","","null","","","","","","<div style=""font-size:60px;"">+</div>","fixation","","",""
"null","","html-keyboard-response","252","2.0.0","602221","0fsedrn20s7d3na","true","30","m&aumlnnlich","rechts","Deutsch","","","null","","","","","","
      <img class=""person-img"" src=""https://raw.githubusercontent.com/saramff/face-recognition-images/refs/heads/master//women/woman_31.jpg"">
      <p class=""person-name"">Marie</p>
    ","","","",""
"null","","html-keyboard-response","253","2.0.0","603229","0fsedrn20s7d3na","true","30","m&aumlnnlich","rechts","Deutsch","","","null","","","","","","<div style=""font-size:60px;"">+</div>","fixation","","",""
"null","","html-keyboard-response","254","2.0.0","604237","0fsedrn20s7d3na","true","30","m&aumlnnlich","rechts","Deutsch","","","null","","","","","","
      <img class=""person-img"" src=""https://raw.githubusercontent.com/saramff/face-recognition-images/refs/heads/master//women/woman_91.jpg"">
      <p class=""person-name"">Josephine</p>
    ","","","",""
"null","","html-keyboard-response","255","2.0.0","605246","0fsedrn20s7d3na","true","30","m&aumlnnlich","rechts","Deutsch","","","null","","","","","","<div style=""font-size:60px;"">+</div>","fixation","","",""
"null","","html-keyboard-response","256","2.0.0","606253","0fsedrn20s7d3na","true","30","m&aumlnnlich","rechts","Deutsch","","","null","","","","","","
      <img class=""person-img"" src=""https://raw.githubusercontent.com/saramff/face-recognition-images/refs/heads/master//women/woman_94.jpg"">
      <p class=""person-name"">Liana</p>
    ","","","",""
"null","","html-keyboard-response","257","2.0.0","607261","0fsedrn20s7d3na","true","30","m&aumlnnlich","rechts","Deutsch","","","null","","","","","","<div style=""font-size:60px;"">+</div>","fixation","","",""
"null","","html-keyboard-response","258","2.0.0","608269","0fsedrn20s7d3na","true","30","m&aumlnnlich","rechts","Deutsch","","","null","","","","","","
      <img class=""person-img"" src=""https://raw.githubusercontent.com/saramff/face-recognition-images/refs/heads/master//men/man_83.jpg"">
      <p class=""person-name"">Jochen</p>
    ","","","",""
"null","","html-keyboard-response","259","2.0.0","609276","0fsedrn20s7d3na","true","30","m&aumlnnlich","rechts","Deutsch","","","null","","","","","","<div style=""font-size:60px;"">+</div>","fixation","","",""
"null","","html-keyboard-response","260","2.0.0","610284","0fsedrn20s7d3na","true","30","m&aumlnnlich","rechts","Deutsch","","","null","","","","","","
      <img class=""person-img"" src=""https://raw.githubusercontent.com/saramff/face-recognition-images/refs/heads/master//men/man_19.jpg"">
      <p class=""person-name"">Bruno</p>
    ","","","",""
"null","","html-keyboard-response","261","2.0.0","611292","0fsedrn20s7d3na","true","30","m&aumlnnlich","rechts","Deutsch","","","null","","","","","","<div style=""font-size:60px;"">+</div>","fixation","","",""
"null","","html-keyboard-response","262","2.0.0","612300","0fsedrn20s7d3na","true","30","m&aumlnnlich","rechts","Deutsch","","","null","","","","","","
      <img class=""person-img"" src=""https://raw.githubusercontent.com/saramff/face-recognition-images/refs/heads/master//men/man_29.jpg"">
      <p class=""person-name"">Volker</p>
    ","","","",""
"null","","html-keyboard-response","263","2.0.0","613306","0fsedrn20s7d3na","true","30","m&aumlnnlich","rechts","Deutsch","","","null","","","","","","<div style=""font-size:60px;"">+</div>","fixation","","",""
"null","","html-keyboard-response","264","2.0.0","614315","0fsedrn20s7d3na","true","30","m&aumlnnlich","rechts","Deutsch","","","null","","","","","","
      <img class=""person-img"" src=""https://raw.githubusercontent.com/saramff/face-recognition-images/refs/heads/master//men/man_81.jpg"">
      <p class=""person-name"">Jonas</p>
    ","","","",""
"null","","html-keyboard-response","265","2.0.0","615323","0fsedrn20s7d3na","true","30","m&aumlnnlich","rechts","Deutsch","","","null","","","","","","<div style=""font-size:60px;"">+</div>","fixation","","",""
"null","","html-keyboard-response","266","2.0.0","616330","0fsedrn20s7d3na","true","30","m&aumlnnlich","rechts","Deutsch","","","null","","","","","","
      <img class=""person-img"" src=""https://raw.githubusercontent.com/saramff/face-recognition-images/refs/heads/master//women/woman_5.jpg"">
      <p class=""person-name"">Eva</p>
    ","","","",""
"null","","html-keyboard-response","267","2.0.0","617337","0fsedrn20s7d3na","true","30","m&aumlnnlich","rechts","Deutsch","","","null","","","","","","<div style=""font-size:60px;"">+</div>","fixation","","",""
"null","","html-keyboard-response","268","2.0.0","618346","0fsedrn20s7d3na","true","30","m&aumlnnlich","rechts","Deutsch","","","null","","","","","","
      <img class=""person-img"" src=""https://raw.githubusercontent.com/saramff/face-recognition-images/refs/heads/master//men/man_4.jpg"">
      <p class=""person-name"">Bj&ouml;rn</p>
    ","","","",""
"null","","html-keyboard-response","269","2.0.0","619353","0fsedrn20s7d3na","true","30","m&aumlnnlich","rechts","Deutsch","","","null","","","","","","<div style=""font-size:60px;"">+</div>","fixation","","",""
"null","","html-keyboard-response","270","2.0.0","620362","0fsedrn20s7d3na","true","30","m&aumlnnlich","rechts","Deutsch","","","null","","","","","","
      <img class=""person-img"" src=""https://raw.githubusercontent.com/saramff/face-recognition-images/refs/heads/master//women/woman_93.jpg"">
      <p class=""person-name"">Klara</p>
    ","","","",""
"null","","html-keyboard-response","271","2.0.0","621369","0fsedrn20s7d3na","true","30","m&aumlnnlich","rechts","Deutsch","","","null","","","","","","<div style=""font-size:60px;"">+</div>","fixation","","",""
"null","","html-keyboard-response","272","2.0.0","622378","0fsedrn20s7d3na","true","30","m&aumlnnlich","rechts","Deutsch","","","null","","","","","","
      <img class=""person-img"" src=""https://raw.githubusercontent.com/saramff/face-recognition-images/refs/heads/master//women/woman_95.jpg"">
      <p class=""person-name"">Finja</p>
    ","","","",""
"null","","html-keyboard-response","273","2.0.0","623386","0fsedrn20s7d3na","true","30","m&aumlnnlich","rechts","Deutsch","","","null","","","","","","<div style=""font-size:60px;"">+</div>","fixation","","",""
"null","","html-keyboard-response","274","2.0.0","624393","0fsedrn20s7d3na","true","30","m&aumlnnlich","rechts","Deutsch","","","null","","","","","","
      <img class=""person-img"" src=""https://raw.githubusercontent.com/saramff/face-recognition-images/refs/heads/master//women/woman_71.jpg"">
      <p class=""person-name"">Johanna</p>
    ","","","",""
"null","","html-keyboard-response","275","2.0.0","625400","0fsedrn20s7d3na","true","30","m&aumlnnlich","rechts","Deutsch","","","null","","","","","","<div style=""font-size:60px;"">+</div>","fixation","","",""
"null","","html-keyboard-response","276","2.0.0","626408","0fsedrn20s7d3na","true","30","m&aumlnnlich","rechts","Deutsch","","","null","","","","","","
      <img class=""person-img"" src=""https://raw.githubusercontent.com/saramff/face-recognition-images/refs/heads/master//men/man_79.jpg"">
      <p class=""person-name"">Markus</p>
    ","","","",""
"null","","html-keyboard-response","277","2.0.0","627416","0fsedrn20s7d3na","true","30","m&aumlnnlich","rechts","Deutsch","","","null","","","","","","<div style=""font-size:60px;"">+</div>","fixation","","",""
"null","","html-keyboard-response","278","2.0.0","628426","0fsedrn20s7d3na","true","30","m&aumlnnlich","rechts","Deutsch","","","null","","","","","","
      <img class=""person-img"" src=""https://raw.githubusercontent.com/saramff/face-recognition-images/refs/heads/master//men/man_46.jpg"">
      <p class=""person-name"">Eugen</p>
    ","","","",""
"null","","html-keyboard-response","279","2.0.0","629433","0fsedrn20s7d3na","true","30","m&aumlnnlich","rechts","Deutsch","","","null","","","","","","<div style=""font-size:60px;"">+</div>","fixation","","",""
"null","","html-keyboard-response","280","2.0.0","630440","0fsedrn20s7d3na","true","30","m&aumlnnlich","rechts","Deutsch","","","null","","","","","","
      <img class=""person-img"" src=""https://raw.githubusercontent.com/saramff/face-recognition-images/refs/heads/master//women/woman_78.jpg"">
      <p class=""person-name"">Stella</p>
    ","","","",""
"null","","html-keyboard-response","281","2.0.0","631448","0fsedrn20s7d3na","true","30","m&aumlnnlich","rechts","Deutsch","","","null","","","","","","<div style=""font-size:60px;"">+</div>","fixation","","",""
"null","","html-keyboard-response","282","2.0.0","632457","0fsedrn20s7d3na","true","30","m&aumlnnlich","rechts","Deutsch","","","null","","","","","","
      <img class=""person-img"" src=""https://raw.githubusercontent.com/saramff/face-recognition-images/refs/heads/master//men/man_50.jpg"">
      <p class=""person-name"">Tristan</p>
    ","","","",""
"null","","html-keyboard-response","283","2.0.0","633465","0fsedrn20s7d3na","true","30","m&aumlnnlich","rechts","Deutsch","","","null","","","","","","<div style=""font-size:60px;"">+</div>","fixation","","",""
"null","","html-keyboard-response","284","2.0.0","634471","0fsedrn20s7d3na","true","30","m&aumlnnlich","rechts","Deutsch","","","null","","","","","","
      <img class=""person-img"" src=""https://raw.githubusercontent.com/saramff/face-recognition-images/refs/heads/master//men/man_21.jpg"">
      <p class=""person-name"">Matthias</p>
    ","","","",""
"null","","html-keyboard-response","285","2.0.0","635480","0fsedrn20s7d3na","true","30","m&aumlnnlich","rechts","Deutsch","","","null","","","","","","<div style=""font-size:60px;"">+</div>","fixation","","",""
"null","","html-keyboard-response","286","2.0.0","636486","0fsedrn20s7d3na","true","30","m&aumlnnlich","rechts","Deutsch","","","null","","","","","","
      <img class=""person-img"" src=""https://raw.githubusercontent.com/saramff/face-recognition-images/refs/heads/master//women/woman_27.jpg"">
      <p class=""person-name"">Annalena</p>
    ","","","",""
"null","","html-keyboard-response","287","2.0.0","637494","0fsedrn20s7d3na","true","30","m&aumlnnlich","rechts","Deutsch","","","null","","","","","","<div style=""font-size:60px;"">+</div>","fixation","","",""
"null","","html-keyboard-response","288","2.0.0","638501","0fsedrn20s7d3na","true","30","m&aumlnnlich","rechts","Deutsch","","","null","","","","","","
      <img class=""person-img"" src=""https://raw.githubusercontent.com/saramff/face-recognition-images/refs/heads/master//women/woman_40.jpg"">
      <p class=""person-name"">Leila</p>
    ","","","",""
"null","","html-keyboard-response","289","2.0.0","639504","0fsedrn20s7d3na","true","30","m&aumlnnlich","rechts","Deutsch","","","null","","","","","","<div style=""font-size:60px;"">+</div>","fixation","","",""
"null","","html-keyboard-response","290","2.0.0","640512","0fsedrn20s7d3na","true","30","m&aumlnnlich","rechts","Deutsch","","","null","","","","","","
      <img class=""person-img"" src=""https://raw.githubusercontent.com/saramff/face-recognition-images/refs/heads/master//men/man_57.jpg"">
      <p class=""person-name"">Patrick</p>
    ","","","",""
"null","","html-keyboard-response","291","2.0.0","641520","0fsedrn20s7d3na","true","30","m&aumlnnlich","rechts","Deutsch","","","null","","","","","","<div style=""font-size:60px;"">+</div>","fixation","","",""
"null","","html-keyboard-response","292","2.0.0","642527","0fsedrn20s7d3na","true","30","m&aumlnnlich","rechts","Deutsch","","","null","","","","","","
      <img class=""person-img"" src=""https://raw.githubusercontent.com/saramff/face-recognition-images/refs/heads/master//women/woman_87.jpg"">
      <p class=""person-name"">Zoe</p>
    ","","","",""
"null","","html-keyboard-response","293","2.0.0","643533","0fsedrn20s7d3na","true","30","m&aumlnnlich","rechts","Deutsch","","","null","","","","","","<div style=""font-size:60px;"">+</div>","fixation","","",""
"null","","html-keyboard-response","294","2.0.0","644540","0fsedrn20s7d3na","true","30","m&aumlnnlich","rechts","Deutsch","","","null","","","","","","
      <img class=""person-img"" src=""https://raw.githubusercontent.com/saramff/face-recognition-images/refs/heads/master//men/man_2.jpg"">
      <p class=""person-name"">Axel</p>
    ","","","",""
"null","","html-keyboard-response","295","2.0.0","645549","0fsedrn20s7d3na","true","30","m&aumlnnlich","rechts","Deutsch","","","null","","","","","","<div style=""font-size:60px;"">+</div>","fixation","","",""
"null","","html-keyboard-response","296","2.0.0","646556","0fsedrn20s7d3na","true","30","m&aumlnnlich","rechts","Deutsch","","","null","","","","","","
      <img class=""person-img"" src=""https://raw.githubusercontent.com/saramff/face-recognition-images/refs/heads/master//men/man_24.jpg"">
      <p class=""person-name"">Kilian</p>
    ","","","",""
"null","","html-keyboard-response","297","2.0.0","647564","0fsedrn20s7d3na","true","30","m&aumlnnlich","rechts","Deutsch","","","null","","","","","","<div style=""font-size:60px;"">+</div>","fixation","","",""
"null","","html-keyboard-response","298","2.0.0","648571","0fsedrn20s7d3na","true","30","m&aumlnnlich","rechts","Deutsch","","","null","","","","","","
      <img class=""person-img"" src=""https://raw.githubusercontent.com/saramff/face-recognition-images/refs/heads/master//women/woman_24.jpg"">
      <p class=""person-name"">Louisa</p>
    ","","","",""
"null","","html-keyboard-response","299","2.0.0","649579","0fsedrn20s7d3na","true","30","m&aumlnnlich","rechts","Deutsch","","","null","","","","","","<div style=""font-size:60px;"">+</div>","fixation","","",""
"null","","html-keyboard-response","300","2.0.0","650585","0fsedrn20s7d3na","true","30","m&aumlnnlich","rechts","Deutsch","","","null","","","","","","
      <img class=""person-img"" src=""https://raw.githubusercontent.com/saramff/face-recognition-images/refs/heads/master//women/woman_69.jpg"">
      <p class=""person-name"">Claudia</p>
    ","","","",""
"null","","html-keyboard-response","301","2.0.0","651593","0fsedrn20s7d3na","true","30","m&aumlnnlich","rechts","Deutsch","","","null","","","","","","<div style=""font-size:60px;"">+</div>","fixation","","",""
"null","","html-keyboard-response","302","2.0.0","652601","0fsedrn20s7d3na","true","30","m&aumlnnlich","rechts","Deutsch","","","null","","","","","","
      <img class=""person-img"" src=""https://raw.githubusercontent.com/saramff/face-recognition-images/refs/heads/master//women/woman_56.jpg"">
      <p class=""person-name"">Sina</p>
    ","","","",""
"null","","html-keyboard-response","303","2.0.0","653608","0fsedrn20s7d3na","true","30","m&aumlnnlich","rechts","Deutsch","","","null","","","","","","<div style=""font-size:60px;"">+</div>","fixation","","",""
"null","","html-keyboard-response","304","2.0.0","654617","0fsedrn20s7d3na","true","30","m&aumlnnlich","rechts","Deutsch","","","null","","","","","","
      <img class=""person-img"" src=""https://raw.githubusercontent.com/saramff/face-recognition-images/refs/heads/master//men/man_53.jpg"">
      <p class=""person-name"">Albert</p>
    ","","","",""
"null","","html-keyboard-response","305","2.0.0","655626","0fsedrn20s7d3na","true","30","m&aumlnnlich","rechts","Deutsch","","","null","","","","","","<div style=""font-size:60px;"">+</div>","fixation","","",""
"null","","html-keyboard-response","306","2.0.0","656634","0fsedrn20s7d3na","true","30","m&aumlnnlich","rechts","Deutsch","","","null","","","","","","
      <img class=""person-img"" src=""https://raw.githubusercontent.com/saramff/face-recognition-images/refs/heads/master//women/woman_3.jpg"">
      <p class=""person-name"">Ariane</p>
    ","","","",""
"null","","html-keyboard-response","307","2.0.0","657645","0fsedrn20s7d3na","true","30","m&aumlnnlich","rechts","Deutsch","","","null","","","","","","<div style=""font-size:60px;"">+</div>","fixation","","",""
"null","","html-keyboard-response","308","2.0.0","658648","0fsedrn20s7d3na","true","30","m&aumlnnlich","rechts","Deutsch","","","null","","","","","","
      <img class=""person-img"" src=""https://raw.githubusercontent.com/saramff/face-recognition-images/refs/heads/master//men/man_30.jpg"">
      <p class=""person-name"">Peter</p>
    ","","","",""
"null","","html-keyboard-response","309","2.0.0","659657","0fsedrn20s7d3na","true","30","m&aumlnnlich","rechts","Deutsch","","","null","","","","","","<div style=""font-size:60px;"">+</div>","fixation","","",""
"null","","html-keyboard-response","310","2.0.0","660663","0fsedrn20s7d3na","true","30","m&aumlnnlich","rechts","Deutsch","","","null","","","","","","
      <img class=""person-img"" src=""https://raw.githubusercontent.com/saramff/face-recognition-images/refs/heads/master//men/man_23.jpg"">
      <p class=""person-name"">Steffen</p>
    ","","","",""
"null","","html-keyboard-response","311","2.0.0","661671","0fsedrn20s7d3na","true","30","m&aumlnnlich","rechts","Deutsch","","","null","","","","","","<div style=""font-size:60px;"">+</div>","fixation","","",""
"null","","html-keyboard-response","312","2.0.0","662678","0fsedrn20s7d3na","true","30","m&aumlnnlich","rechts","Deutsch","","","null","","","","","","
      <img class=""person-img"" src=""https://raw.githubusercontent.com/saramff/face-recognition-images/refs/heads/master//women/woman_55.jpg"">
      <p class=""person-name"">Fabienne</p>
    ","","","",""
"null","","html-keyboard-response","313","2.0.0","663687","0fsedrn20s7d3na","true","30","m&aumlnnlich","rechts","Deutsch","","","null","","","","","","<div style=""font-size:60px;"">+</div>","fixation","","",""
"null","","html-keyboard-response","314","2.0.0","664694","0fsedrn20s7d3na","true","30","m&aumlnnlich","rechts","Deutsch","","","null","","","","","","
      <img class=""person-img"" src=""https://raw.githubusercontent.com/saramff/face-recognition-images/refs/heads/master//men/man_40.jpg"">
      <p class=""person-name"">Ben</p>
    ","","","",""
"null","","html-keyboard-response","315","2.0.0","665702","0fsedrn20s7d3na","true","30","m&aumlnnlich","rechts","Deutsch","","","null","","","","","","<div style=""font-size:60px;"">+</div>","fixation","","",""
"null","","html-keyboard-response","316","2.0.0","666707","0fsedrn20s7d3na","true","30","m&aumlnnlich","rechts","Deutsch","","","null","","","","","","
      <img class=""person-img"" src=""https://raw.githubusercontent.com/saramff/face-recognition-images/refs/heads/master//women/woman_8.jpg"">
      <p class=""person-name"">Annie</p>
    ","","","",""
"null","","html-keyboard-response","317","2.0.0","667716","0fsedrn20s7d3na","true","30","m&aumlnnlich","rechts","Deutsch","","","null","","","","","","<div style=""font-size:60px;"">+</div>","fixation","","",""
"null","","html-keyboard-response","318","2.0.0","668724","0fsedrn20s7d3na","true","30","m&aumlnnlich","rechts","Deutsch","","","null","","","","","","
      <img class=""person-img"" src=""https://raw.githubusercontent.com/saramff/face-recognition-images/refs/heads/master//men/man_76.jpg"">
      <p class=""person-name"">Gabriel</p>
    ","","","",""
"null","","html-keyboard-response","319","2.0.0","669732","0fsedrn20s7d3na","true","30","m&aumlnnlich","rechts","Deutsch","","","null","","","","","","<div style=""font-size:60px;"">+</div>","fixation","","",""
"null","","html-keyboard-response","320","2.0.0","670743","0fsedrn20s7d3na","true","30","m&aumlnnlich","rechts","Deutsch","","","null","","","","","","
      <img class=""person-img"" src=""https://raw.githubusercontent.com/saramff/face-recognition-images/refs/heads/master//men/man_87.jpg"">
      <p class=""person-name"">Florian</p>
    ","","","",""
"null","","html-keyboard-response","321","2.0.0","671761","0fsedrn20s7d3na","true","30","m&aumlnnlich","rechts","Deutsch","","","null","","","","","","<div style=""font-size:60px;"">+</div>","fixation","","",""
"null","","html-keyboard-response","322","2.0.0","672768","0fsedrn20s7d3na","true","30","m&aumlnnlich","rechts","Deutsch","","","null","","","","","","
      <img class=""person-img"" src=""https://raw.githubusercontent.com/saramff/face-recognition-images/refs/heads/master//women/woman_48.jpg"">
      <p class=""person-name"">Elisabeth</p>
    ","","","",""
"null","","html-keyboard-response","323","2.0.0","673776","0fsedrn20s7d3na","true","30","m&aumlnnlich","rechts","Deutsch","","","null","","","","","","<div style=""font-size:60px;"">+</div>","fixation","","",""
"null","","html-keyboard-response","324","2.0.0","674781","0fsedrn20s7d3na","true","30","m&aumlnnlich","rechts","Deutsch","","","null","","","","","","
      <img class=""person-img"" src=""https://raw.githubusercontent.com/saramff/face-recognition-images/refs/heads/master//men/man_70.jpg"">
      <p class=""person-name"">Joel</p>
    ","","","",""
"null","","html-keyboard-response","325","2.0.0","675791","0fsedrn20s7d3na","true","30","m&aumlnnlich","rechts","Deutsch","","","null","","","","","","<div style=""font-size:60px;"">+</div>","fixation","","",""
"null","","html-keyboard-response","326","2.0.0","676799","0fsedrn20s7d3na","true","30","m&aumlnnlich","rechts","Deutsch","","","null","","","","","","
      <img class=""person-img"" src=""https://raw.githubusercontent.com/saramff/face-recognition-images/refs/heads/master//women/woman_39.jpg"">
      <p class=""person-name"">Lisa</p>
    ","","","",""
"null","","html-keyboard-response","327","2.0.0","677805","0fsedrn20s7d3na","true","30","m&aumlnnlich","rechts","Deutsch","","","null","","","","","","<div style=""font-size:60px;"">+</div>","fixation","","",""
"null","","html-keyboard-response","328","2.0.0","678813","0fsedrn20s7d3na","true","30","m&aumlnnlich","rechts","Deutsch","","","null","","","","","","
      <img class=""person-img"" src=""https://raw.githubusercontent.com/saramff/face-recognition-images/refs/heads/master//women/woman_74.jpg"">
      <p class=""person-name"">Carolin</p>
    ","","","",""
"null","","html-keyboard-response","329","2.0.0","679821","0fsedrn20s7d3na","true","30","m&aumlnnlich","rechts","Deutsch","","","null","","","","","","<div style=""font-size:60px;"">+</div>","fixation","","",""
"null","","html-keyboard-response","330","2.0.0","680828","0fsedrn20s7d3na","true","30","m&aumlnnlich","rechts","Deutsch","","","null","","","","","","
      <img class=""person-img"" src=""https://raw.githubusercontent.com/saramff/face-recognition-images/refs/heads/master//women/woman_54.jpg"">
      <p class=""person-name"">Freya</p>
    ","","","",""
"null","","html-keyboard-response","331","2.0.0","681837","0fsedrn20s7d3na","true","30","m&aumlnnlich","rechts","Deutsch","","","null","","","","","","<div style=""font-size:60px;"">+</div>","fixation","","",""
"null","","html-keyboard-response","332","2.0.0","682843","0fsedrn20s7d3na","true","30","m&aumlnnlich","rechts","Deutsch","","","null","","","","","","
      <img class=""person-img"" src=""https://raw.githubusercontent.com/saramff/face-recognition-images/refs/heads/master//women/woman_90.jpg"">
      <p class=""person-name"">Franziska</p>
    ","","","",""
"null","","html-keyboard-response","333","2.0.0","683853","0fsedrn20s7d3na","true","30","m&aumlnnlich","rechts","Deutsch","","","null","","","","","","<div style=""font-size:60px;"">+</div>","fixation","","",""
"null","","html-keyboard-response","334","2.0.0","684860","0fsedrn20s7d3na","true","30","m&aumlnnlich","rechts","Deutsch","","","null","","","","","","
      <img class=""person-img"" src=""https://raw.githubusercontent.com/saramff/face-recognition-images/refs/heads/master//men/man_11.jpg"">
      <p class=""person-name"">Tim</p>
    ","","","",""
"null","","html-keyboard-response","335","2.0.0","685868","0fsedrn20s7d3na","true","30","m&aumlnnlich","rechts","Deutsch","","","null","","","","","","<div style=""font-size:60px;"">+</div>","fixation","","",""
"null","","html-keyboard-response","336","2.0.0","686876","0fsedrn20s7d3na","true","30","m&aumlnnlich","rechts","Deutsch","","","null","","","","","","
      <img class=""person-img"" src=""https://raw.githubusercontent.com/saramff/face-recognition-images/refs/heads/master//men/man_78.jpg"">
      <p class=""person-name"">Sebastian</p>
    ","","","",""
"null","","html-keyboard-response","337","2.0.0","687885","0fsedrn20s7d3na","true","30","m&aumlnnlich","rechts","Deutsch","","","null","","","","","","<div style=""font-size:60px;"">+</div>","fixation","","",""
"null","","html-keyboard-response","338","2.0.0","688893","0fsedrn20s7d3na","true","30","m&aumlnnlich","rechts","Deutsch","","","null","","","","","","
      <img class=""person-img"" src=""https://raw.githubusercontent.com/saramff/face-recognition-images/refs/heads/master//women/woman_1.jpg"">
      <p class=""person-name"">Karlotta</p>
    ","","","",""
"null","","html-keyboard-response","339","2.0.0","689901","0fsedrn20s7d3na","true","30","m&aumlnnlich","rechts","Deutsch","","","null","","","","","","<div style=""font-size:60px;"">+</div>","fixation","","",""
"null","","html-keyboard-response","340","2.0.0","690908","0fsedrn20s7d3na","true","30","m&aumlnnlich","rechts","Deutsch","","","null","","","","","","
      <img class=""person-img"" src=""https://raw.githubusercontent.com/saramff/face-recognition-images/refs/heads/master//women/woman_10.jpg"">
      <p class=""person-name"">Annika</p>
    ","","","",""
"null","","html-keyboard-response","341","2.0.0","691916","0fsedrn20s7d3na","true","30","m&aumlnnlich","rechts","Deutsch","","","null","","","","","","<div style=""font-size:60px;"">+</div>","fixation","","",""
"null","","html-keyboard-response","342","2.0.0","692924","0fsedrn20s7d3na","true","30","m&aumlnnlich","rechts","Deutsch","","","null","","","","","","
      <img class=""person-img"" src=""https://raw.githubusercontent.com/saramff/face-recognition-images/refs/heads/master//women/woman_4.jpg"">
      <p class=""person-name"">Ariane</p>
    ","","","",""
"null","","html-keyboard-response","343","2.0.0","693932","0fsedrn20s7d3na","true","30","m&aumlnnlich","rechts","Deutsch","","","null","","","","","","<div style=""font-size:60px;"">+</div>","fixation","","",""
"null","","html-keyboard-response","344","2.0.0","694940","0fsedrn20s7d3na","true","30","m&aumlnnlich","rechts","Deutsch","","","null","","","","","","
      <img class=""person-img"" src=""https://raw.githubusercontent.com/saramff/face-recognition-images/refs/heads/master//women/woman_72.jpg"">
      <p class=""person-name"">Lea</p>
    ","","","",""
"null","","html-keyboard-response","345","2.0.0","695947","0fsedrn20s7d3na","true","30","m&aumlnnlich","rechts","Deutsch","","","null","","","","","","<div style=""font-size:60px;"">+</div>","fixation","","",""
"null","","html-keyboard-response","346","2.0.0","696954","0fsedrn20s7d3na","true","30","m&aumlnnlich","rechts","Deutsch","","","null","","","","","","
      <img class=""person-img"" src=""https://raw.githubusercontent.com/saramff/face-recognition-images/refs/heads/master//men/man_73.jpg"">
      <p class=""person-name"">Robert</p>
    ","","","",""
"null","","html-keyboard-response","347","2.0.0","697964","0fsedrn20s7d3na","true","30","m&aumlnnlich","rechts","Deutsch","","","null","","","","","","<div style=""font-size:60px;"">+</div>","fixation","","",""
"null","","html-keyboard-response","348","2.0.0","698970","0fsedrn20s7d3na","true","30","m&aumlnnlich","rechts","Deutsch","","","null","","","","","","
      <img class=""person-img"" src=""https://raw.githubusercontent.com/saramff/face-recognition-images/refs/heads/master//men/man_42.jpg"">
      <p class=""person-name"">Felix</p>
    ","","","",""
"null","","html-keyboard-response","349","2.0.0","699975","0fsedrn20s7d3na","true","30","m&aumlnnlich","rechts","Deutsch","","","null","","","","","","<div style=""font-size:60px;"">+</div>","fixation","","",""
"null","","html-keyboard-response","350","2.0.0","700983","0fsedrn20s7d3na","true","30","m&aumlnnlich","rechts","Deutsch","","","null","","","","","","
      <img class=""person-img"" src=""https://raw.githubusercontent.com/saramff/face-recognition-images/refs/heads/master//men/man_10.jpg"">
      <p class=""person-name"">Tobias</p>
    ","","","",""
"null","","html-keyboard-response","351","2.0.0","701992","0fsedrn20s7d3na","true","30","m&aumlnnlich","rechts","Deutsch","","","null","","","","","","<div style=""font-size:60px;"">+</div>","fixation","","",""
"null","","html-keyboard-response","352","2.0.0","702999","0fsedrn20s7d3na","true","30","m&aumlnnlich","rechts","Deutsch","","","null","","","","","","
      <img class=""person-img"" src=""https://raw.githubusercontent.com/saramff/face-recognition-images/refs/heads/master//men/man_66.jpg"">
      <p class=""person-name"">Artur</p>
    ","","","",""
"null","","html-keyboard-response","353","2.0.0","704005","0fsedrn20s7d3na","true","30","m&aumlnnlich","rechts","Deutsch","","","null","","","","","","<div style=""font-size:60px;"">+</div>","fixation","","",""
"null","","html-keyboard-response","354","2.0.0","705013","0fsedrn20s7d3na","true","30","m&aumlnnlich","rechts","Deutsch","","","null","","","","","","
      <img class=""person-img"" src=""https://raw.githubusercontent.com/saramff/face-recognition-images/refs/heads/master//women/woman_66.jpg"">
