"rt","url","trial_type","trial_index","plugin_version","time_elapsed","subject","fullscreen","age","gender","handedness","language","success","type","response","question_order","timeout","failed_images","failed_audio","failed_video","stimulus","task","correct_response","correct","correct_response_meaning"
"2839","consentA2.html","external-html","0","2.0.0","2909","60zy6zoy4a7z31h","true","20","m&aumlnnlich","rechts","andere","","","","","","","","","","","","",""
"1112","","fullscreen","1","2.0.0","5033","60zy6zoy4a7z31h","true","20","m&aumlnnlich","rechts","andere","true","","","","","","","","","","","",""
"2341","","survey-text","2","2.0.0","7381","60zy6zoy4a7z31h","true","20","m&aumlnnlich","rechts","andere","","demo","{""Q0"":""20""}","","","","","","","","","",""
"3818","","survey-multi-choice","3","2.0.0","11203","60zy6zoy4a7z31h","true","20","m&aumlnnlich","rechts","andere","","","{""gender"":""m&aumlnnlich"",""handedness"":""rechts"",""language"":""andere""}","[0,1,2]","","","","","","","","",""
"","","preload","4","2.0.0","60497","60zy6zoy4a7z31h","true","20","m&aumlnnlich","rechts","andere","true","","","","false","[]","[]","[]","","","","",""
"","","preload","5","2.0.0","62879","60zy6zoy4a7z31h","true","20","m&aumlnnlich","rechts","andere","true","","","","false","[]","[]","[]","","","","",""
"","","preload","6","2.0.0","71335","60zy6zoy4a7z31h","true","20","m&aumlnnlich","rechts","andere","true","","","","false","[]","[]","[]","","","","",""
"2019","","html-keyboard-response","7","2.0.0","73355","60zy6zoy4a7z31h","true","20","m&aumlnnlich","rechts","andere","",""," ","","","","","","Willkommen zum Experiment. Drücken Sie eine beliebige Taste, um zu beginnen.","","","",""
"2161","","html-keyboard-response","8","2.0.0","75517","60zy6zoy4a7z31h","true","20","m&aumlnnlich","rechts","andere","",""," ","","","","","","
    <p>In diesem Experiment werden nacheinander automatisch verschiedene Gesichter angezeigt.</p>
    <p>Bitte achten Sie genau auf jedes Gesicht und den dazugehörigen Namen.</p>
    <p>Die Gesichter erscheinen von selbst und Sie brauchen nichts weiter zu tun, außer aufmerksam zu sein.</p>
    <p>Drücken Sie eine beliebige Taste, um zu beginnen, wenn Sie bereit sind.</p>
  ","","","",""
"null","","html-keyboard-response","9","2.0.0","76539","60zy6zoy4a7z31h","true","20","m&aumlnnlich","rechts","andere","","","null","","","","","","<div style=""font-size:60px;"">+</div>","fixation","","",""
"null","","html-keyboard-response","10","2.0.0","77544","60zy6zoy4a7z31h","true","20","m&aumlnnlich","rechts","andere","","","null","","","","","","
      <img class=""person-img"" src=""https://raw.githubusercontent.com/saramff/face-recognition-images/refs/heads/master//men/man_60.jpg"">
      <p class=""person-name"">Peter</p>
    ","","","",""
"null","","html-keyboard-response","11","2.0.0","78561","60zy6zoy4a7z31h","true","20","m&aumlnnlich","rechts","andere","","","null","","","","","","<div style=""font-size:60px;"">+</div>","fixation","","",""
"null","","html-keyboard-response","12","2.0.0","79569","60zy6zoy4a7z31h","true","20","m&aumlnnlich","rechts","andere","","","null","","","","","","
      <img class=""person-img"" src=""https://raw.githubusercontent.com/saramff/face-recognition-images/refs/heads/master//women/woman_38.jpg"">
      <p class=""person-name"">Leila</p>
    ","","","",""
"null","","html-keyboard-response","13","2.0.0","80575","60zy6zoy4a7z31h","true","20","m&aumlnnlich","rechts","andere","","","null","","","","","","<div style=""font-size:60px;"">+</div>","fixation","","",""
"null","","html-keyboard-response","14","2.0.0","81585","60zy6zoy4a7z31h","true","20","m&aumlnnlich","rechts","andere","","","null","","","","","","
      <img class=""person-img"" src=""https://raw.githubusercontent.com/saramff/face-recognition-images/refs/heads/master//women/woman_53.jpg"">
      <p class=""person-name"">Fiona</p>
    ","","","",""
"null","","html-keyboard-response","15","2.0.0","82601","60zy6zoy4a7z31h","true","20","m&aumlnnlich","rechts","andere","","","null","","","","","","<div style=""font-size:60px;"">+</div>","fixation","","",""
"null","","html-keyboard-response","16","2.0.0","83607","60zy6zoy4a7z31h","true","20","m&aumlnnlich","rechts","andere","","","null","","","","","","
      <img class=""person-img"" src=""https://raw.githubusercontent.com/saramff/face-recognition-images/refs/heads/master//men/man_12.jpg"">
      <p class=""person-name"">Jonas</p>
    ","","","",""
"null","","html-keyboard-response","17","2.0.0","84614","60zy6zoy4a7z31h","true","20","m&aumlnnlich","rechts","andere","","","null","","","","","","<div style=""font-size:60px;"">+</div>","fixation","","",""
"null","","html-keyboard-response","18","2.0.0","85619","60zy6zoy4a7z31h","true","20","m&aumlnnlich","rechts","andere","","","null","","","","","","
      <img class=""person-img"" src=""https://raw.githubusercontent.com/saramff/face-recognition-images/refs/heads/master//men/man_70.jpg"">
      <p class=""person-name"">Alexander</p>
    ","","","",""
"null","","html-keyboard-response","19","2.0.0","86642","60zy6zoy4a7z31h","true","20","m&aumlnnlich","rechts","andere","","","null","","","","","","<div style=""font-size:60px;"">+</div>","fixation","","",""
"null","","html-keyboard-response","20","2.0.0","87647","60zy6zoy4a7z31h","true","20","m&aumlnnlich","rechts","andere","","","null","","","","","","
      <img class=""person-img"" src=""https://raw.githubusercontent.com/saramff/face-recognition-images/refs/heads/master//women/woman_63.jpg"">
      <p class=""person-name"">Svenja</p>
    ","","","",""
"null","","html-keyboard-response","21","2.0.0","88665","60zy6zoy4a7z31h","true","20","m&aumlnnlich","rechts","andere","","","null","","","","","","<div style=""font-size:60px;"">+</div>","fixation","","",""
"null","","html-keyboard-response","22","2.0.0","89672","60zy6zoy4a7z31h","true","20","m&aumlnnlich","rechts","andere","","","null","","","","","","
      <img class=""person-img"" src=""https://raw.githubusercontent.com/saramff/face-recognition-images/refs/heads/master//women/woman_67.jpg"">
      <p class=""person-name"">Alma</p>
    ","","","",""
"null","","html-keyboard-response","23","2.0.0","90684","60zy6zoy4a7z31h","true","20","m&aumlnnlich","rechts","andere","","","null","","","","","","<div style=""font-size:60px;"">+</div>","fixation","","",""
"null","","html-keyboard-response","24","2.0.0","91700","60zy6zoy4a7z31h","true","20","m&aumlnnlich","rechts","andere","","","null","","","","","","
      <img class=""person-img"" src=""https://raw.githubusercontent.com/saramff/face-recognition-images/refs/heads/master//women/woman_31.jpg"">
      <p class=""person-name"">Sarah</p>
    ","","","",""
"null","","html-keyboard-response","25","2.0.0","92715","60zy6zoy4a7z31h","true","20","m&aumlnnlich","rechts","andere","","","null","","","","","","<div style=""font-size:60px;"">+</div>","fixation","","",""
"null","","html-keyboard-response","26","2.0.0","93719","60zy6zoy4a7z31h","true","20","m&aumlnnlich","rechts","andere","","","null","","","","","","
      <img class=""person-img"" src=""https://raw.githubusercontent.com/saramff/face-recognition-images/refs/heads/master//women/woman_77.jpg"">
      <p class=""person-name"">Anouk</p>
    ","","","",""
"null","","html-keyboard-response","27","2.0.0","94730","60zy6zoy4a7z31h","true","20","m&aumlnnlich","rechts","andere","","","null","","","","","","<div style=""font-size:60px;"">+</div>","fixation","","",""
"null","","html-keyboard-response","28","2.0.0","95735","60zy6zoy4a7z31h","true","20","m&aumlnnlich","rechts","andere","","","null","","","","","","
      <img class=""person-img"" src=""https://raw.githubusercontent.com/saramff/face-recognition-images/refs/heads/master//men/man_95.jpg"">
      <p class=""person-name"">Anton</p>
    ","","","",""
"null","","html-keyboard-response","29","2.0.0","96743","60zy6zoy4a7z31h","true","20","m&aumlnnlich","rechts","andere","","","null","","","","","","<div style=""font-size:60px;"">+</div>","fixation","","",""
"null","","html-keyboard-response","30","2.0.0","97750","60zy6zoy4a7z31h","true","20","m&aumlnnlich","rechts","andere","","","null","","","","","","
      <img class=""person-img"" src=""https://raw.githubusercontent.com/saramff/face-recognition-images/refs/heads/master//women/woman_13.jpg"">
      <p class=""person-name"">Charlotte</p>
    ","","","",""
"null","","html-keyboard-response","31","2.0.0","98760","60zy6zoy4a7z31h","true","20","m&aumlnnlich","rechts","andere","","","null","","","","","","<div style=""font-size:60px;"">+</div>","fixation","","",""
"null","","html-keyboard-response","32","2.0.0","99767","60zy6zoy4a7z31h","true","20","m&aumlnnlich","rechts","andere","","","null","","","","","","
      <img class=""person-img"" src=""https://raw.githubusercontent.com/saramff/face-recognition-images/refs/heads/master//men/man_35.jpg"">
      <p class=""person-name"">Moritz</p>
    ","","","",""
"null","","html-keyboard-response","33","2.0.0","100779","60zy6zoy4a7z31h","true","20","m&aumlnnlich","rechts","andere","","","null","","","","","","<div style=""font-size:60px;"">+</div>","fixation","","",""
"null","","html-keyboard-response","34","2.0.0","101784","60zy6zoy4a7z31h","true","20","m&aumlnnlich","rechts","andere","","","null","","","","","","
      <img class=""person-img"" src=""https://raw.githubusercontent.com/saramff/face-recognition-images/refs/heads/master//women/woman_36.jpg"">
      <p class=""person-name"">Lotte</p>
    ","","","",""
"null","","html-keyboard-response","35","2.0.0","102791","60zy6zoy4a7z31h","true","20","m&aumlnnlich","rechts","andere","","","null","","","","","","<div style=""font-size:60px;"">+</div>","fixation","","",""
"null","","html-keyboard-response","36","2.0.0","103800","60zy6zoy4a7z31h","true","20","m&aumlnnlich","rechts","andere","","","null","","","","","","
      <img class=""person-img"" src=""https://raw.githubusercontent.com/saramff/face-recognition-images/refs/heads/master//men/man_42.jpg"">
      <p class=""person-name"">Martin</p>
    ","","","",""
"null","","html-keyboard-response","37","2.0.0","104808","60zy6zoy4a7z31h","true","20","m&aumlnnlich","rechts","andere","","","null","","","","","","<div style=""font-size:60px;"">+</div>","fixation","","",""
"null","","html-keyboard-response","38","2.0.0","105815","60zy6zoy4a7z31h","true","20","m&aumlnnlich","rechts","andere","","","null","","","","","","
      <img class=""person-img"" src=""https://raw.githubusercontent.com/saramff/face-recognition-images/refs/heads/master//men/man_73.jpg"">
      <p class=""person-name"">Andreas</p>
    ","","","",""
"null","","html-keyboard-response","39","2.0.0","106824","60zy6zoy4a7z31h","true","20","m&aumlnnlich","rechts","andere","","","null","","","","","","<div style=""font-size:60px;"">+</div>","fixation","","",""
"null","","html-keyboard-response","40","2.0.0","107828","60zy6zoy4a7z31h","true","20","m&aumlnnlich","rechts","andere","","","null","","","","","","
      <img class=""person-img"" src=""https://raw.githubusercontent.com/saramff/face-recognition-images/refs/heads/master//women/woman_29.jpg"">
      <p class=""person-name"">Josephine</p>
    ","","","",""
"null","","html-keyboard-response","41","2.0.0","108848","60zy6zoy4a7z31h","true","20","m&aumlnnlich","rechts","andere","","","null","","","","","","<div style=""font-size:60px;"">+</div>","fixation","","",""
"null","","html-keyboard-response","42","2.0.0","109854","60zy6zoy4a7z31h","true","20","m&aumlnnlich","rechts","andere","","","null","","","","","","
      <img class=""person-img"" src=""https://raw.githubusercontent.com/saramff/face-recognition-images/refs/heads/master//men/man_33.jpg"">
      <p class=""person-name"">Dirk</p>
    ","","","",""
"null","","html-keyboard-response","43","2.0.0","110860","60zy6zoy4a7z31h","true","20","m&aumlnnlich","rechts","andere","","","null","","","","","","<div style=""font-size:60px;"">+</div>","fixation","","",""
"null","","html-keyboard-response","44","2.0.0","111865","60zy6zoy4a7z31h","true","20","m&aumlnnlich","rechts","andere","","","null","","","","","","
      <img class=""person-img"" src=""https://raw.githubusercontent.com/saramff/face-recognition-images/refs/heads/master//men/man_41.jpg"">
      <p class=""person-name"">Christoph</p>
    ","","","",""
"null","","html-keyboard-response","45","2.0.0","112869","60zy6zoy4a7z31h","true","20","m&aumlnnlich","rechts","andere","","","null","","","","","","<div style=""font-size:60px;"">+</div>","fixation","","",""
"null","","html-keyboard-response","46","2.0.0","113879","60zy6zoy4a7z31h","true","20","m&aumlnnlich","rechts","andere","","","null","","","","","","
      <img class=""person-img"" src=""https://raw.githubusercontent.com/saramff/face-recognition-images/refs/heads/master//men/man_88.jpg"">
      <p class=""person-name"">Holger</p>
    ","","","",""
"null","","html-keyboard-response","47","2.0.0","114890","60zy6zoy4a7z31h","true","20","m&aumlnnlich","rechts","andere","","","null","","","","","","<div style=""font-size:60px;"">+</div>","fixation","","",""
"null","","html-keyboard-response","48","2.0.0","115895","60zy6zoy4a7z31h","true","20","m&aumlnnlich","rechts","andere","","","null","","","","","","
      <img class=""person-img"" src=""https://raw.githubusercontent.com/saramff/face-recognition-images/refs/heads/master//men/man_85.jpg"">
      <p class=""person-name"">Ben</p>
    ","","","",""
"null","","html-keyboard-response","49","2.0.0","116906","60zy6zoy4a7z31h","true","20","m&aumlnnlich","rechts","andere","","","null","","","","","","<div style=""font-size:60px;"">+</div>","fixation","","",""
"null","","html-keyboard-response","50","2.0.0","117916","60zy6zoy4a7z31h","true","20","m&aumlnnlich","rechts","andere","","","null","","","","","","
      <img class=""person-img"" src=""https://raw.githubusercontent.com/saramff/face-recognition-images/refs/heads/master//women/woman_59.jpg"">
      <p class=""person-name"">Aurelia</p>
    ","","","",""
"null","","html-keyboard-response","51","2.0.0","118926","60zy6zoy4a7z31h","true","20","m&aumlnnlich","rechts","andere","","","null","","","","","","<div style=""font-size:60px;"">+</div>","fixation","","",""
"null","","html-keyboard-response","52","2.0.0","119931","60zy6zoy4a7z31h","true","20","m&aumlnnlich","rechts","andere","","","null","","","","","","
      <img class=""person-img"" src=""https://raw.githubusercontent.com/saramff/face-recognition-images/refs/heads/master//men/man_86.jpg"">
      <p class=""person-name"">Olaf</p>
    ","","","",""
"null","","html-keyboard-response","53","2.0.0","120944","60zy6zoy4a7z31h","true","20","m&aumlnnlich","rechts","andere","","","null","","","","","","<div style=""font-size:60px;"">+</div>","fixation","","",""
"null","","html-keyboard-response","54","2.0.0","121947","60zy6zoy4a7z31h","true","20","m&aumlnnlich","rechts","andere","","","null","","","","","","
      <img class=""person-img"" src=""https://raw.githubusercontent.com/saramff/face-recognition-images/refs/heads/master//men/man_8.jpg"">
      <p class=""person-name"">David</p>
    ","","","",""
"null","","html-keyboard-response","55","2.0.0","122958","60zy6zoy4a7z31h","true","20","m&aumlnnlich","rechts","andere","","","null","","","","","","<div style=""font-size:60px;"">+</div>","fixation","","",""
"null","","html-keyboard-response","56","2.0.0","123967","60zy6zoy4a7z31h","true","20","m&aumlnnlich","rechts","andere","","","null","","","","","","
      <img class=""person-img"" src=""https://raw.githubusercontent.com/saramff/face-recognition-images/refs/heads/master//men/man_20.jpg"">
      <p class=""person-name"">Ren&eacute;</p>
    ","","","",""
"null","","html-keyboard-response","57","2.0.0","124976","60zy6zoy4a7z31h","true","20","m&aumlnnlich","rechts","andere","","","null","","","","","","<div style=""font-size:60px;"">+</div>","fixation","","",""
"null","","html-keyboard-response","58","2.0.0","125980","60zy6zoy4a7z31h","true","20","m&aumlnnlich","rechts","andere","","","null","","","","","","
      <img class=""person-img"" src=""https://raw.githubusercontent.com/saramff/face-recognition-images/refs/heads/master//women/woman_11.jpg"">
      <p class=""person-name"">Amira</p>
    ","","","",""
"null","","html-keyboard-response","59","2.0.0","126998","60zy6zoy4a7z31h","true","20","m&aumlnnlich","rechts","andere","","","null","","","","","","<div style=""font-size:60px;"">+</div>","fixation","","",""
"null","","html-keyboard-response","60","2.0.0","128006","60zy6zoy4a7z31h","true","20","m&aumlnnlich","rechts","andere","","","null","","","","","","
      <img class=""person-img"" src=""https://raw.githubusercontent.com/saramff/face-recognition-images/refs/heads/master//men/man_64.jpg"">
      <p class=""person-name"">Heiko</p>
    ","","","",""
"null","","html-keyboard-response","61","2.0.0","129018","60zy6zoy4a7z31h","true","20","m&aumlnnlich","rechts","andere","","","null","","","","","","<div style=""font-size:60px;"">+</div>","fixation","","",""
"null","","html-keyboard-response","62","2.0.0","130023","60zy6zoy4a7z31h","true","20","m&aumlnnlich","rechts","andere","","","null","","","","","","
      <img class=""person-img"" src=""https://raw.githubusercontent.com/saramff/face-recognition-images/refs/heads/master//women/woman_54.jpg"">
      <p class=""person-name"">Nadine</p>
    ","","","",""
"null","","html-keyboard-response","63","2.0.0","131040","60zy6zoy4a7z31h","true","20","m&aumlnnlich","rechts","andere","","","null","","","","","","<div style=""font-size:60px;"">+</div>","fixation","","",""
"null","","html-keyboard-response","64","2.0.0","132046","60zy6zoy4a7z31h","true","20","m&aumlnnlich","rechts","andere","","","null","","","","","","
      <img class=""person-img"" src=""https://raw.githubusercontent.com/saramff/face-recognition-images/refs/heads/master//men/man_68.jpg"">
      <p class=""person-name"">Artur</p>
    ","","","",""
"null","","html-keyboard-response","65","2.0.0","133059","60zy6zoy4a7z31h","true","20","m&aumlnnlich","rechts","andere","","","null","","","","","","<div style=""font-size:60px;"">+</div>","fixation","","",""
"null","","html-keyboard-response","66","2.0.0","134063","60zy6zoy4a7z31h","true","20","m&aumlnnlich","rechts","andere","","","null","","","","","","
      <img class=""person-img"" src=""https://raw.githubusercontent.com/saramff/face-recognition-images/refs/heads/master//women/woman_23.jpg"">
      <p class=""person-name"">Paulina</p>
    ","","","",""
"null","","html-keyboard-response","67","2.0.0","135071","60zy6zoy4a7z31h","true","20","m&aumlnnlich","rechts","andere","","","null","","","","","","<div style=""font-size:60px;"">+</div>","fixation","","",""
"null","","html-keyboard-response","68","2.0.0","136078","60zy6zoy4a7z31h","true","20","m&aumlnnlich","rechts","andere","","","null","","","","","","
      <img class=""person-img"" src=""https://raw.githubusercontent.com/saramff/face-recognition-images/refs/heads/master//women/woman_41.jpg"">
      <p class=""person-name"">Leonie</p>
    ","","","",""
"null","","html-keyboard-response","69","2.0.0","137087","60zy6zoy4a7z31h","true","20","m&aumlnnlich","rechts","andere","","","null","","","","","","<div style=""font-size:60px;"">+</div>","fixation","","",""
"null","","html-keyboard-response","70","2.0.0","138099","60zy6zoy4a7z31h","true","20","m&aumlnnlich","rechts","andere","","","null","","","","","","
      <img class=""person-img"" src=""https://raw.githubusercontent.com/saramff/face-recognition-images/refs/heads/master//women/woman_20.jpg"">
      <p class=""person-name"">Finja</p>
    ","","","",""
"null","","html-keyboard-response","71","2.0.0","139111","60zy6zoy4a7z31h","true","20","m&aumlnnlich","rechts","andere","","","null","","","","","","<div style=""font-size:60px;"">+</div>","fixation","","",""
"null","","html-keyboard-response","72","2.0.0","140123","60zy6zoy4a7z31h","true","20","m&aumlnnlich","rechts","andere","","","null","","","","","","
      <img class=""person-img"" src=""https://raw.githubusercontent.com/saramff/face-recognition-images/refs/heads/master//men/man_32.jpg"">
      <p class=""person-name"">Kilian</p>
    ","","","",""
"null","","html-keyboard-response","73","2.0.0","141135","60zy6zoy4a7z31h","true","20","m&aumlnnlich","rechts","andere","","","null","","","","","","<div style=""font-size:60px;"">+</div>","fixation","","",""
"null","","html-keyboard-response","74","2.0.0","142138","60zy6zoy4a7z31h","true","20","m&aumlnnlich","rechts","andere","","","null","","","","","","
      <img class=""person-img"" src=""https://raw.githubusercontent.com/saramff/face-recognition-images/refs/heads/master//men/man_89.jpg"">
      <p class=""person-name"">Benedikt</p>
    ","","","",""
"null","","html-keyboard-response","75","2.0.0","143158","60zy6zoy4a7z31h","true","20","m&aumlnnlich","rechts","andere","","","null","","","","","","<div style=""font-size:60px;"">+</div>","fixation","","",""
"null","","html-keyboard-response","76","2.0.0","144167","60zy6zoy4a7z31h","true","20","m&aumlnnlich","rechts","andere","","","null","","","","","","
      <img class=""person-img"" src=""https://raw.githubusercontent.com/saramff/face-recognition-images/refs/heads/master//women/woman_14.jpg"">
      <p class=""person-name"">Alina</p>
    ","","","",""
"null","","html-keyboard-response","77","2.0.0","145176","60zy6zoy4a7z31h","true","20","m&aumlnnlich","rechts","andere","","","null","","","","","","<div style=""font-size:60px;"">+</div>","fixation","","",""
"null","","html-keyboard-response","78","2.0.0","146181","60zy6zoy4a7z31h","true","20","m&aumlnnlich","rechts","andere","","","null","","","","","","
      <img class=""person-img"" src=""https://raw.githubusercontent.com/saramff/face-recognition-images/refs/heads/master//women/woman_68.jpg"">
      <p class=""person-name"">Verena</p>
    ","","","",""
"null","","html-keyboard-response","79","2.0.0","147191","60zy6zoy4a7z31h","true","20","m&aumlnnlich","rechts","andere","","","null","","","","","","<div style=""font-size:60px;"">+</div>","fixation","","",""
"null","","html-keyboard-response","80","2.0.0","148201","60zy6zoy4a7z31h","true","20","m&aumlnnlich","rechts","andere","","","null","","","","","","
      <img class=""person-img"" src=""https://raw.githubusercontent.com/saramff/face-recognition-images/refs/heads/master//men/man_43.jpg"">
      <p class=""person-name"">Bernd</p>
    ","","","",""
"null","","html-keyboard-response","81","2.0.0","149222","60zy6zoy4a7z31h","true","20","m&aumlnnlich","rechts","andere","","","null","","","","","","<div style=""font-size:60px;"">+</div>","fixation","","",""
"null","","html-keyboard-response","82","2.0.0","150232","60zy6zoy4a7z31h","true","20","m&aumlnnlich","rechts","andere","","","null","","","","","","
      <img class=""person-img"" src=""https://raw.githubusercontent.com/saramff/face-recognition-images/refs/heads/master//women/woman_19.jpg"">
      <p class=""person-name"">Lea</p>
    ","","","",""
"null","","html-keyboard-response","83","2.0.0","151237","60zy6zoy4a7z31h","true","20","m&aumlnnlich","rechts","andere","","","null","","","","","","<div style=""font-size:60px;"">+</div>","fixation","","",""
"null","","html-keyboard-response","84","2.0.0","152251","60zy6zoy4a7z31h","true","20","m&aumlnnlich","rechts","andere","","","null","","","","","","
      <img class=""person-img"" src=""https://raw.githubusercontent.com/saramff/face-recognition-images/refs/heads/master//men/man_87.jpg"">
      <p class=""person-name"">Leon</p>
    ","","","",""
"null","","html-keyboard-response","85","2.0.0","153262","60zy6zoy4a7z31h","true","20","m&aumlnnlich","rechts","andere","","","null","","","","","","<div style=""font-size:60px;"">+</div>","fixation","","",""
"null","","html-keyboard-response","86","2.0.0","154266","60zy6zoy4a7z31h","true","20","m&aumlnnlich","rechts","andere","","","null","","","","","","
      <img class=""person-img"" src=""https://raw.githubusercontent.com/saramff/face-recognition-images/refs/heads/master//men/man_96.jpg"">
      <p class=""person-name"">Guido</p>
    ","","","",""
"null","","html-keyboard-response","87","2.0.0","155271","60zy6zoy4a7z31h","true","20","m&aumlnnlich","rechts","andere","","","null","","","","","","<div style=""font-size:60px;"">+</div>","fixation","","",""
"null","","html-keyboard-response","88","2.0.0","156278","60zy6zoy4a7z31h","true","20","m&aumlnnlich","rechts","andere","","","null","","","","","","
      <img class=""person-img"" src=""https://raw.githubusercontent.com/saramff/face-recognition-images/refs/heads/master//men/man_13.jpg"">
      <p class=""person-name"">Daniel</p>
    ","","","",""
"null","","html-keyboard-response","89","2.0.0","157291","60zy6zoy4a7z31h","true","20","m&aumlnnlich","rechts","andere","","","null","","","","","","<div style=""font-size:60px;"">+</div>","fixation","","",""
"null","","html-keyboard-response","90","2.0.0","158302","60zy6zoy4a7z31h","true","20","m&aumlnnlich","rechts","andere","","","null","","","","","","
      <img class=""person-img"" src=""https://raw.githubusercontent.com/saramff/face-recognition-images/refs/heads/master//women/woman_64.jpg"">
      <p class=""person-name"">Beate</p>
    ","","","",""
"null","","html-keyboard-response","91","2.0.0","159312","60zy6zoy4a7z31h","true","20","m&aumlnnlich","rechts","andere","","","null","","","","","","<div style=""font-size:60px;"">+</div>","fixation","","",""
"null","","html-keyboard-response","92","2.0.0","160317","60zy6zoy4a7z31h","true","20","m&aumlnnlich","rechts","andere","","","null","","","","","","
      <img class=""person-img"" src=""https://raw.githubusercontent.com/saramff/face-recognition-images/refs/heads/master//women/woman_55.jpg"">
      <p class=""person-name"">Carolin</p>
    ","","","",""
"null","","html-keyboard-response","93","2.0.0","161331","60zy6zoy4a7z31h","true","20","m&aumlnnlich","rechts","andere","","","null","","","","","","<div style=""font-size:60px;"">+</div>","fixation","","",""
"null","","html-keyboard-response","94","2.0.0","162334","60zy6zoy4a7z31h","true","20","m&aumlnnlich","rechts","andere","","","null","","","","","","
      <img class=""person-img"" src=""https://raw.githubusercontent.com/saramff/face-recognition-images/refs/heads/master//men/man_71.jpg"">
      <p class=""person-name"">Axel</p>
    ","","","",""
"null","","html-keyboard-response","95","2.0.0","163341","60zy6zoy4a7z31h","true","20","m&aumlnnlich","rechts","andere","","","null","","","","","","<div style=""font-size:60px;"">+</div>","fixation","","",""
"null","","html-keyboard-response","96","2.0.0","164348","60zy6zoy4a7z31h","true","20","m&aumlnnlich","rechts","andere","","","null","","","","","","
      <img class=""person-img"" src=""https://raw.githubusercontent.com/saramff/face-recognition-images/refs/heads/master//women/woman_57.jpg"">
      <p class=""person-name"">Eva</p>
    ","","","",""
"null","","html-keyboard-response","97","2.0.0","165353","60zy6zoy4a7z31h","true","20","m&aumlnnlich","rechts","andere","","","null","","","","","","<div style=""font-size:60px;"">+</div>","fixation","","",""
"null","","html-keyboard-response","98","2.0.0","166358","60zy6zoy4a7z31h","true","20","m&aumlnnlich","rechts","andere","","","null","","","","","","
      <img class=""person-img"" src=""https://raw.githubusercontent.com/saramff/face-recognition-images/refs/heads/master//men/man_14.jpg"">
      <p class=""person-name"">Julian</p>
    ","","","",""
"null","","html-keyboard-response","99","2.0.0","167368","60zy6zoy4a7z31h","true","20","m&aumlnnlich","rechts","andere","","","null","","","","","","<div style=""font-size:60px;"">+</div>","fixation","","",""
"null","","html-keyboard-response","100","2.0.0","168374","60zy6zoy4a7z31h","true","20","m&aumlnnlich","rechts","andere","","","null","","","","","","
      <img class=""person-img"" src=""https://raw.githubusercontent.com/saramff/face-recognition-images/refs/heads/master//men/man_80.jpg"">
      <p class=""person-name"">Matthias</p>
    ","","","",""
"null","","html-keyboard-response","101","2.0.0","169382","60zy6zoy4a7z31h","true","20","m&aumlnnlich","rechts","andere","","","null","","","","","","<div style=""font-size:60px;"">+</div>","fixation","","",""
"null","","html-keyboard-response","102","2.0.0","170391","60zy6zoy4a7z31h","true","20","m&aumlnnlich","rechts","andere","","","null","","","","","","
      <img class=""person-img"" src=""https://raw.githubusercontent.com/saramff/face-recognition-images/refs/heads/master//men/man_6.jpg"">
      <p class=""person-name"">Viktor</p>
    ","","","",""
"null","","html-keyboard-response","103","2.0.0","171402","60zy6zoy4a7z31h","true","20","m&aumlnnlich","rechts","andere","","","null","","","","","","<div style=""font-size:60px;"">+</div>","fixation","","",""
"null","","html-keyboard-response","104","2.0.0","172408","60zy6zoy4a7z31h","true","20","m&aumlnnlich","rechts","andere","","","null","","","","","","
      <img class=""person-img"" src=""https://raw.githubusercontent.com/saramff/face-recognition-images/refs/heads/master//men/man_77.jpg"">
      <p class=""person-name"">Steffen</p>
    ","","","",""
"null","","html-keyboard-response","105","2.0.0","173424","60zy6zoy4a7z31h","true","20","m&aumlnnlich","rechts","andere","","","null","","","","","","<div style=""font-size:60px;"">+</div>","fixation","","",""
"null","","html-keyboard-response","106","2.0.0","174432","60zy6zoy4a7z31h","true","20","m&aumlnnlich","rechts","andere","","","null","","","","","","
      <img class=""person-img"" src=""https://raw.githubusercontent.com/saramff/face-recognition-images/refs/heads/master//men/man_26.jpg"">
      <p class=""person-name"">Jochen</p>
    ","","","",""
"null","","html-keyboard-response","107","2.0.0","175439","60zy6zoy4a7z31h","true","20","m&aumlnnlich","rechts","andere","","","null","","","","","","<div style=""font-size:60px;"">+</div>","fixation","","",""
"null","","html-keyboard-response","108","2.0.0","176443","60zy6zoy4a7z31h","true","20","m&aumlnnlich","rechts","andere","","","null","","","","","","
      <img class=""person-img"" src=""https://raw.githubusercontent.com/saramff/face-recognition-images/refs/heads/master//men/man_4.jpg"">
      <p class=""person-name"">Konrad</p>
    ","","","",""
"null","","html-keyboard-response","109","2.0.0","177462","60zy6zoy4a7z31h","true","20","m&aumlnnlich","rechts","andere","","","null","","","","","","<div style=""font-size:60px;"">+</div>","fixation","","",""
"null","","html-keyboard-response","110","2.0.0","178468","60zy6zoy4a7z31h","true","20","m&aumlnnlich","rechts","andere","","","null","","","","","","
      <img class=""person-img"" src=""https://raw.githubusercontent.com/saramff/face-recognition-images/refs/heads/master//women/woman_12.jpg"">
      <p class=""person-name"">Emma</p>
    ","","","",""
"null","","html-keyboard-response","111","2.0.0","179482","60zy6zoy4a7z31h","true","20","m&aumlnnlich","rechts","andere","","","null","","","","","","<div style=""font-size:60px;"">+</div>","fixation","","",""
"null","","html-keyboard-response","112","2.0.0","180487","60zy6zoy4a7z31h","true","20","m&aumlnnlich","rechts","andere","","","null","","","","","","
      <img class=""person-img"" src=""https://raw.githubusercontent.com/saramff/face-recognition-images/refs/heads/master//women/woman_58.jpg"">
      <p class=""person-name"">Elisabeth</p>
    ","","","",""
"null","","html-keyboard-response","113","2.0.0","181493","60zy6zoy4a7z31h","true","20","m&aumlnnlich","rechts","andere","","","null","","","","","","<div style=""font-size:60px;"">+</div>","fixation","","",""
"null","","html-keyboard-response","114","2.0.0","182501","60zy6zoy4a7z31h","true","20","m&aumlnnlich","rechts","andere","","","null","","","","","","
      <img class=""person-img"" src=""https://raw.githubusercontent.com/saramff/face-recognition-images/refs/heads/master//men/man_10.jpg"">
      <p class=""person-name"">Theodor</p>
    ","","","",""
"null","","html-keyboard-response","115","2.0.0","183511","60zy6zoy4a7z31h","true","20","m&aumlnnlich","rechts","andere","","","null","","","","","","<div style=""font-size:60px;"">+</div>","fixation","","",""
"null","","html-keyboard-response","116","2.0.0","184523","60zy6zoy4a7z31h","true","20","m&aumlnnlich","rechts","andere","","","null","","","","","","
      <img class=""person-img"" src=""https://raw.githubusercontent.com/saramff/face-recognition-images/refs/heads/master//women/woman_44.jpg"">
      <p class=""person-name"">Greta</p>
    ","","","",""
"null","","html-keyboard-response","117","2.0.0","185534","60zy6zoy4a7z31h","true","20","m&aumlnnlich","rechts","andere","","","null","","","","","","<div style=""font-size:60px;"">+</div>","fixation","","",""
"null","","html-keyboard-response","118","2.0.0","186544","60zy6zoy4a7z31h","true","20","m&aumlnnlich","rechts","andere","","","null","","","","","","
      <img class=""person-img"" src=""https://raw.githubusercontent.com/saramff/face-recognition-images/refs/heads/master//men/man_93.jpg"">
      <p class=""person-name"">Adrian</p>
    ","","","",""
"null","","html-keyboard-response","119","2.0.0","187557","60zy6zoy4a7z31h","true","20","m&aumlnnlich","rechts","andere","","","null","","","","","","<div style=""font-size:60px;"">+</div>","fixation","","",""
"null","","html-keyboard-response","120","2.0.0","188568","60zy6zoy4a7z31h","true","20","m&aumlnnlich","rechts","andere","","","null","","","","","","
      <img class=""person-img"" src=""https://raw.githubusercontent.com/saramff/face-recognition-images/refs/heads/master//women/woman_48.jpg"">
      <p class=""person-name"">Annalena</p>
    ","","","",""
"null","","html-keyboard-response","121","2.0.0","189573","60zy6zoy4a7z31h","true","20","m&aumlnnlich","rechts","andere","","","null","","","","","","<div style=""font-size:60px;"">+</div>","fixation","","",""
"null","","html-keyboard-response","122","2.0.0","190576","60zy6zoy4a7z31h","true","20","m&aumlnnlich","rechts","andere","","","null","","","","","","
      <img class=""person-img"" src=""https://raw.githubusercontent.com/saramff/face-recognition-images/refs/heads/master//women/woman_17.jpg"">
      <p class=""person-name"">Lisa</p>
    ","","","",""
"null","","html-keyboard-response","123","2.0.0","191596","60zy6zoy4a7z31h","true","20","m&aumlnnlich","rechts","andere","","","null","","","","","","<div style=""font-size:60px;"">+</div>","fixation","","",""
"null","","html-keyboard-response","124","2.0.0","192601","60zy6zoy4a7z31h","true","20","m&aumlnnlich","rechts","andere","","","null","","","","","","
      <img class=""person-img"" src=""https://raw.githubusercontent.com/saramff/face-recognition-images/refs/heads/master//men/man_61.jpg"">
      <p class=""person-name"">Felix</p>
    ","","","",""
"null","","html-keyboard-response","125","2.0.0","193613","60zy6zoy4a7z31h","true","20","m&aumlnnlich","rechts","andere","","","null","","","","","","<div style=""font-size:60px;"">+</div>","fixation","","",""
"null","","html-keyboard-response","126","2.0.0","194622","60zy6zoy4a7z31h","true","20","m&aumlnnlich","rechts","andere","","","null","","","","","","
      <img class=""person-img"" src=""https://raw.githubusercontent.com/saramff/face-recognition-images/refs/heads/master//men/man_16.jpg"">
      <p class=""person-name"">Emil</p>
    ","","","",""
"null","","html-keyboard-response","127","2.0.0","195630","60zy6zoy4a7z31h","true","20","m&aumlnnlich","rechts","andere","","","null","","","","","","<div style=""font-size:60px;"">+</div>","fixation","","",""
"null","","html-keyboard-response","128","2.0.0","196638","60zy6zoy4a7z31h","true","20","m&aumlnnlich","rechts","andere","","","null","","","","","","
      <img class=""person-img"" src=""https://raw.githubusercontent.com/saramff/face-recognition-images/refs/heads/master//men/man_81.jpg"">
      <p class=""person-name"">Manuel</p>
    ","","","",""
"null","","html-keyboard-response","129","2.0.0","197642","60zy6zoy4a7z31h","true","20","m&aumlnnlich","rechts","andere","","","null","","","","","","<div style=""font-size:60px;"">+</div>","fixation","","",""
"null","","html-keyboard-response","130","2.0.0","198645","60zy6zoy4a7z31h","true","20","m&aumlnnlich","rechts","andere","","","null","","","","","","
      <img class=""person-img"" src=""https://raw.githubusercontent.com/saramff/face-recognition-images/refs/heads/master//men/man_59.jpg"">
      <p class=""person-name"">Kai</p>
    ","","","",""
"null","","html-keyboard-response","131","2.0.0","199655","60zy6zoy4a7z31h","true","20","m&aumlnnlich","rechts","andere","","","null","","","","","","<div style=""font-size:60px;"">+</div>","fixation","","",""
"null","","html-keyboard-response","132","2.0.0","200659","60zy6zoy4a7z31h","true","20","m&aumlnnlich","rechts","andere","","","null","","","","","","
      <img class=""person-img"" src=""https://raw.githubusercontent.com/saramff/face-recognition-images/refs/heads/master//women/woman_8.jpg"">
      <p class=""person-name"">Nicole</p>
    ","","","",""
"null","","html-keyboard-response","133","2.0.0","201663","60zy6zoy4a7z31h","true","20","m&aumlnnlich","rechts","andere","","","null","","","","","","<div style=""font-size:60px;"">+</div>","fixation","","",""
"null","","html-keyboard-response","134","2.0.0","202674","60zy6zoy4a7z31h","true","20","m&aumlnnlich","rechts","andere","","","null","","","","","","
      <img class=""person-img"" src=""https://raw.githubusercontent.com/saramff/face-recognition-images/refs/heads/master//men/man_72.jpg"">
      <p class=""person-name"">Jens</p>
    ","","","",""
"null","","html-keyboard-response","135","2.0.0","203689","60zy6zoy4a7z31h","true","20","m&aumlnnlich","rechts","andere","","","null","","","","","","<div style=""font-size:60px;"">+</div>","fixation","","",""
"null","","html-keyboard-response","136","2.0.0","204694","60zy6zoy4a7z31h","true","20","m&aumlnnlich","rechts","andere","","","null","","","","","","
      <img class=""person-img"" src=""https://raw.githubusercontent.com/saramff/face-recognition-images/refs/heads/master//women/woman_85.jpg"">
      <p class=""person-name"">Franziska</p>
    ","","","",""
"null","","html-keyboard-response","137","2.0.0","205701","60zy6zoy4a7z31h","true","20","m&aumlnnlich","rechts","andere","","","null","","","","","","<div style=""font-size:60px;"">+</div>","fixation","","",""
"null","","html-keyboard-response","138","2.0.0","206711","60zy6zoy4a7z31h","true","20","m&aumlnnlich","rechts","andere","","","null","","","","","","
      <img class=""person-img"" src=""https://raw.githubusercontent.com/saramff/face-recognition-images/refs/heads/master//men/man_83.jpg"">
      <p class=""person-name"">Joel</p>
    ","","","",""
"null","","html-keyboard-response","139","2.0.0","207721","60zy6zoy4a7z31h","true","20","m&aumlnnlich","rechts","andere","","","null","","","","","","<div style=""font-size:60px;"">+</div>","fixation","","",""
"null","","html-keyboard-response","140","2.0.0","208726","60zy6zoy4a7z31h","true","20","m&aumlnnlich","rechts","andere","","","null","","","","","","
      <img class=""person-img"" src=""https://raw.githubusercontent.com/saramff/face-recognition-images/refs/heads/master//women/woman_21.jpg"">
      <p class=""person-name"">Zoe</p>
    ","","","",""
"null","","html-keyboard-response","141","2.0.0","209733","60zy6zoy4a7z31h","true","20","m&aumlnnlich","rechts","andere","","","null","","","","","","<div style=""font-size:60px;"">+</div>","fixation","","",""
"null","","html-keyboard-response","142","2.0.0","210745","60zy6zoy4a7z31h","true","20","m&aumlnnlich","rechts","andere","","","null","","","","","","
      <img class=""person-img"" src=""https://raw.githubusercontent.com/saramff/face-recognition-images/refs/heads/master//women/woman_9.jpg"">
      <p class=""person-name"">Sabrina</p>
    ","","","",""
"null","","html-keyboard-response","143","2.0.0","211758","60zy6zoy4a7z31h","true","20","m&aumlnnlich","rechts","andere","","","null","","","","","","<div style=""font-size:60px;"">+</div>","fixation","","",""
"null","","html-keyboard-response","144","2.0.0","212766","60zy6zoy4a7z31h","true","20","m&aumlnnlich","rechts","andere","","","null","","","","","","
      <img class=""person-img"" src=""https://raw.githubusercontent.com/saramff/face-recognition-images/refs/heads/master//men/man_30.jpg"">
      <p class=""person-name"">Lukas</p>
    ","","","",""
"null","","html-keyboard-response","145","2.0.0","213775","60zy6zoy4a7z31h","true","20","m&aumlnnlich","rechts","andere","","","null","","","","","","<div style=""font-size:60px;"">+</div>","fixation","","",""
"null","","html-keyboard-response","146","2.0.0","214777","60zy6zoy4a7z31h","true","20","m&aumlnnlich","rechts","andere","","","null","","","","","","
      <img class=""person-img"" src=""https://raw.githubusercontent.com/saramff/face-recognition-images/refs/heads/master//men/man_90.jpg"">
      <p class=""person-name"">Tristan</p>
    ","","","",""
"null","","html-keyboard-response","147","2.0.0","215799","60zy6zoy4a7z31h","true","20","m&aumlnnlich","rechts","andere","","","null","","","","","","<div style=""font-size:60px;"">+</div>","fixation","","",""
"null","","html-keyboard-response","148","2.0.0","216805","60zy6zoy4a7z31h","true","20","m&aumlnnlich","rechts","andere","","","null","","","","","","
      <img class=""person-img"" src=""https://raw.githubusercontent.com/saramff/face-recognition-images/refs/heads/master//men/man_76.jpg"">
      <p class=""person-name"">Achim</p>
    ","","","",""
"null","","html-keyboard-response","149","2.0.0","217824","60zy6zoy4a7z31h","true","20","m&aumlnnlich","rechts","andere","","","null","","","","","","<div style=""font-size:60px;"">+</div>","fixation","","",""
"null","","html-keyboard-response","150","2.0.0","218831","60zy6zoy4a7z31h","true","20","m&aumlnnlich","rechts","andere","","","null","","","","","","
      <img class=""person-img"" src=""https://raw.githubusercontent.com/saramff/face-recognition-images/refs/heads/master//women/woman_90.jpg"">
      <p class=""person-name"">Lilly</p>
    ","","","",""
"null","","html-keyboard-response","151","2.0.0","219846","60zy6zoy4a7z31h","true","20","m&aumlnnlich","rechts","andere","","","null","","","","","","<div style=""font-size:60px;"">+</div>","fixation","","",""
"null","","html-keyboard-response","152","2.0.0","220854","60zy6zoy4a7z31h","true","20","m&aumlnnlich","rechts","andere","","","null","","","","","","
      <img class=""person-img"" src=""https://raw.githubusercontent.com/saramff/face-recognition-images/refs/heads/master//men/man_17.jpg"">
      <p class=""person-name"">Marcel</p>
    ","","","",""
"null","","html-keyboard-response","153","2.0.0","221861","60zy6zoy4a7z31h","true","20","m&aumlnnlich","rechts","andere","","","null","","","","","","<div style=""font-size:60px;"">+</div>","fixation","","",""
"null","","html-keyboard-response","154","2.0.0","222865","60zy6zoy4a7z31h","true","20","m&aumlnnlich","rechts","andere","","","null","","","","","","
      <img class=""person-img"" src=""https://raw.githubusercontent.com/saramff/face-recognition-images/refs/heads/master//women/woman_83.jpg"">
      <p class=""person-name"">Viola</p>
    ","","","",""
"null","","html-keyboard-response","155","2.0.0","223889","60zy6zoy4a7z31h","true","20","m&aumlnnlich","rechts","andere","","","null","","","","","","<div style=""font-size:60px;"">+</div>","fixation","","",""
"null","","html-keyboard-response","156","2.0.0","224894","60zy6zoy4a7z31h","true","20","m&aumlnnlich","rechts","andere","","","null","","","","","","
      <img class=""person-img"" src=""https://raw.githubusercontent.com/saramff/face-recognition-images/refs/heads/master//women/woman_79.jpg"">
      <p class=""person-name"">Ronja</p>
    ","","","",""
"null","","html-keyboard-response","157","2.0.0","225901","60zy6zoy4a7z31h","true","20","m&aumlnnlich","rechts","andere","","","null","","","","","","<div style=""font-size:60px;"">+</div>","fixation","","",""
"null","","html-keyboard-response","158","2.0.0","226913","60zy6zoy4a7z31h","true","20","m&aumlnnlich","rechts","andere","","","null","","","","","","
      <img class=""person-img"" src=""https://raw.githubusercontent.com/saramff/face-recognition-images/refs/heads/master//men/man_29.jpg"">
      <p class=""person-name"">Frederik</p>
    ","","","",""
"null","","html-keyboard-response","159","2.0.0","227928","60zy6zoy4a7z31h","true","20","m&aumlnnlich","rechts","andere","","","null","","","","","","<div style=""font-size:60px;"">+</div>","fixation","","",""
"null","","html-keyboard-response","160","2.0.0","228936","60zy6zoy4a7z31h","true","20","m&aumlnnlich","rechts","andere","","","null","","","","","","
      <img class=""person-img"" src=""https://raw.githubusercontent.com/saramff/face-recognition-images/refs/heads/master//men/man_19.jpg"">
      <p class=""person-name"">Paul</p>
    ","","","",""
"null","","html-keyboard-response","161","2.0.0","229951","60zy6zoy4a7z31h","true","20","m&aumlnnlich","rechts","andere","","","null","","","","","","<div style=""font-size:60px;"">+</div>","fixation","","",""
"null","","html-keyboard-response","162","2.0.0","230956","60zy6zoy4a7z31h","true","20","m&aumlnnlich","rechts","andere","","","null","","","","","","
      <img class=""person-img"" src=""https://raw.githubusercontent.com/saramff/face-recognition-images/refs/heads/master//men/man_79.jpg"">
      <p class=""person-name"">Thorsten</p>
    ","","","",""
"null","","html-keyboard-response","163","2.0.0","231974","60zy6zoy4a7z31h","true","20","m&aumlnnlich","rechts","andere","","","null","","","","","","<div style=""font-size:60px;"">+</div>","fixation","","",""
"null","","html-keyboard-response","164","2.0.0","232980","60zy6zoy4a7z31h","true","20","m&aumlnnlich","rechts","andere","","","null","","","","","","
      <img class=""person-img"" src=""https://raw.githubusercontent.com/saramff/face-recognition-images/refs/heads/master//men/man_27.jpg"">
      <p class=""person-name"">Dominik</p>
    ","","","",""
"null","","html-keyboard-response","165","2.0.0","233999","60zy6zoy4a7z31h","true","20","m&aumlnnlich","rechts","andere","","","null","","","","","","<div style=""font-size:60px;"">+</div>","fixation","","",""
"null","","html-keyboard-response","166","2.0.0","235005","60zy6zoy4a7z31h","true","20","m&aumlnnlich","rechts","andere","","","null","","","","","","
      <img class=""person-img"" src=""https://raw.githubusercontent.com/saramff/face-recognition-images/refs/heads/master//women/woman_88.jpg"">
      <p class=""person-name"">Theresa</p>
    ","","","",""
"null","","html-keyboard-response","167","2.0.0","236011","60zy6zoy4a7z31h","true","20","m&aumlnnlich","rechts","andere","","","null","","","","","","<div style=""font-size:60px;"">+</div>","fixation","","",""
"null","","html-keyboard-response","168","2.0.0","237021","60zy6zoy4a7z31h","true","20","m&aumlnnlich","rechts","andere","","","null","","","","","","
      <img class=""person-img"" src=""https://raw.githubusercontent.com/saramff/face-recognition-images/refs/heads/master//men/man_47.jpg"">
      <p class=""person-name"">Bj&ouml;rn</p>
    ","","","",""
"null","","html-keyboard-response","169","2.0.0","238039","60zy6zoy4a7z31h","true","20","m&aumlnnlich","rechts","andere","","","null","","","","","","<div style=""font-size:60px;"">+</div>","fixation","","",""
"null","","html-keyboard-response","170","2.0.0","239044","60zy6zoy4a7z31h","true","20","m&aumlnnlich","rechts","andere","","","null","","","","","","
      <img class=""person-img"" src=""https://raw.githubusercontent.com/saramff/face-recognition-images/refs/heads/master//women/woman_87.jpg"">
      <p class=""person-name"">Annika</p>
    ","","","",""
"null","","html-keyboard-response","171","2.0.0","240048","60zy6zoy4a7z31h","true","20","m&aumlnnlich","rechts","andere","","","null","","","","","","<div style=""font-size:60px;"">+</div>","fixation","","",""
"null","","html-keyboard-response","172","2.0.0","241056","60zy6zoy4a7z31h","true","20","m&aumlnnlich","rechts","andere","","","null","","","","","","
      <img class=""person-img"" src=""https://raw.githubusercontent.com/saramff/face-recognition-images/refs/heads/master//women/woman_81.jpg"">
      <p class=""person-name"">Bianca</p>
    ","","","",""
"null","","html-keyboard-response","173","2.0.0","242070","60zy6zoy4a7z31h","true","20","m&aumlnnlich","rechts","andere","","","null","","","","","","<div style=""font-size:60px;"">+</div>","fixation","","",""
"null","","html-keyboard-response","174","2.0.0","243077","60zy6zoy4a7z31h","true","20","m&aumlnnlich","rechts","andere","","","null","","","","","","
      <img class=""person-img"" src=""https://raw.githubusercontent.com/saramff/face-recognition-images/refs/heads/master//women/woman_71.jpg"">
      <p class=""person-name"">Valentina</p>
    ","","","",""
"null","","html-keyboard-response","175","2.0.0","244088","60zy6zoy4a7z31h","true","20","m&aumlnnlich","rechts","andere","","","null","","","","","","<div style=""font-size:60px;"">+</div>","fixation","","",""
"null","","html-keyboard-response","176","2.0.0","245097","60zy6zoy4a7z31h","true","20","m&aumlnnlich","rechts","andere","","","null","","","","","","
      <img class=""person-img"" src=""https://raw.githubusercontent.com/saramff/face-recognition-images/refs/heads/master//men/man_2.jpg"">
      <p class=""person-name"">Oliver</p>
    ","","","",""
"null","","html-keyboard-response","177","2.0.0","246110","60zy6zoy4a7z31h","true","20","m&aumlnnlich","rechts","andere","","","null","","","","","","<div style=""font-size:60px;"">+</div>","fixation","","",""
"null","","html-keyboard-response","178","2.0.0","247117","60zy6zoy4a7z31h","true","20","m&aumlnnlich","rechts","andere","","","null","","","","","","
      <img class=""person-img"" src=""https://raw.githubusercontent.com/saramff/face-recognition-images/refs/heads/master//women/woman_49.jpg"">
      <p class=""person-name"">Tabea</p>
    ","","","",""
"null","","html-keyboard-response","179","2.0.0","248129","60zy6zoy4a7z31h","true","20","m&aumlnnlich","rechts","andere","","","null","","","","","","<div style=""font-size:60px;"">+</div>","fixation","","",""
"null","","html-keyboard-response","180","2.0.0","249132","60zy6zoy4a7z31h","true","20","m&aumlnnlich","rechts","andere","","","null","","","","","","
      <img class=""person-img"" src=""https://raw.githubusercontent.com/saramff/face-recognition-images/refs/heads/master//men/man_9.jpg"">
      <p class=""person-name"">Bruno</p>
    ","","","",""
"null","","html-keyboard-response","181","2.0.0","250141","60zy6zoy4a7z31h","true","20","m&aumlnnlich","rechts","andere","","","null","","","","","","<div style=""font-size:60px;"">+</div>","fixation","","",""
"null","","html-keyboard-response","182","2.0.0","251143","60zy6zoy4a7z31h","true","20","m&aumlnnlich","rechts","andere","","","null","","","","","","
      <img class=""person-img"" src=""https://raw.githubusercontent.com/saramff/face-recognition-images/refs/heads/master//women/woman_84.jpg"">
      <p class=""person-name"">Christina</p>
    ","","","",""
"null","","html-keyboard-response","183","2.0.0","252161","60zy6zoy4a7z31h","true","20","m&aumlnnlich","rechts","andere","","","null","","","","","","<div style=""font-size:60px;"">+</div>","fixation","","",""
"null","","html-keyboard-response","184","2.0.0","253173","60zy6zoy4a7z31h","true","20","m&aumlnnlich","rechts","andere","","","null","","","","","","
      <img class=""person-img"" src=""https://raw.githubusercontent.com/saramff/face-recognition-images/refs/heads/master//men/man_22.jpg"">
      <p class=""person-name"">Sven</p>
    ","","","",""
"null","","html-keyboard-response","185","2.0.0","254181","60zy6zoy4a7z31h","true","20","m&aumlnnlich","rechts","andere","","","null","","","","","","<div style=""font-size:60px;"">+</div>","fixation","","",""
"null","","html-keyboard-response","186","2.0.0","255186","60zy6zoy4a7z31h","true","20","m&aumlnnlich","rechts","andere","","","null","","","","","","
      <img class=""person-img"" src=""https://raw.githubusercontent.com/saramff/face-recognition-images/refs/heads/master//men/man_28.jpg"">
      <p class=""person-name"">Thomas</p>
    ","","","",""
"null","","html-keyboard-response","187","2.0.0","256201","60zy6zoy4a7z31h","true","20","m&aumlnnlich","rechts","andere","","","null","","","","","","<div style=""font-size:60px;"">+</div>","fixation","","",""
"null","","html-keyboard-response","188","2.0.0","257206","60zy6zoy4a7z31h","true","20","m&aumlnnlich","rechts","andere","","","null","","","","","","
      <img class=""person-img"" src=""https://raw.githubusercontent.com/saramff/face-recognition-images/refs/heads/master//women/woman_96.jpg"">
      <p class=""person-name"">Lena</p>
    ","","","",""
"null","","html-keyboard-response","189","2.0.0","258213","60zy6zoy4a7z31h","true","20","m&aumlnnlich","rechts","andere","","","null","","","","","","<div style=""font-size:60px;"">+</div>","fixation","","",""
"null","","html-keyboard-response","190","2.0.0","259222","60zy6zoy4a7z31h","true","20","m&aumlnnlich","rechts","andere","","","null","","","","","","
      <img class=""person-img"" src=""https://raw.githubusercontent.com/saramff/face-recognition-images/refs/heads/master//men/man_49.jpg"">
      <p class=""person-name"">Ludwig</p>
    ","","","",""
"null","","html-keyboard-response","191","2.0.0","260233","60zy6zoy4a7z31h","true","20","m&aumlnnlich","rechts","andere","","","null","","","","","","<div style=""font-size:60px;"">+</div>","fixation","","",""
"null","","html-keyboard-response","192","2.0.0","261236","60zy6zoy4a7z31h","true","20","m&aumlnnlich","rechts","andere","","","null","","","","","","
      <img class=""person-img"" src=""https://raw.githubusercontent.com/saramff/face-recognition-images/refs/heads/master//men/man_31.jpg"">
      <p class=""person-name"">Robin</p>
    ","","","",""
"null","","html-keyboard-response","193","2.0.0","262252","60zy6zoy4a7z31h","true","20","m&aumlnnlich","rechts","andere","","","null","","","","","","<div style=""font-size:60px;"">+</div>","fixation","","",""
"null","","html-keyboard-response","194","2.0.0","263258","60zy6zoy4a7z31h","true","20","m&aumlnnlich","rechts","andere","","","null","","","","","","
      <img class=""person-img"" src=""https://raw.githubusercontent.com/saramff/face-recognition-images/refs/heads/master//women/woman_45.jpg"">
      <p class=""person-name"">Louisa</p>
    ","","","",""
"null","","html-keyboard-response","195","2.0.0","264273","60zy6zoy4a7z31h","true","20","m&aumlnnlich","rechts","andere","","","null","","","","","","<div style=""font-size:60px;"">+</div>","fixation","","",""
"null","","html-keyboard-response","196","2.0.0","265284","60zy6zoy4a7z31h","true","20","m&aumlnnlich","rechts","andere","","","null","","","","","","
      <img class=""person-img"" src=""https://raw.githubusercontent.com/saramff/face-recognition-images/refs/heads/master//men/man_91.jpg"">
      <p class=""person-name"">Aaron</p>
    ","","","",""
"null","","html-keyboard-response","197","2.0.0","266297","60zy6zoy4a7z31h","true","20","m&aumlnnlich","rechts","andere","","","null","","","","","","<div style=""font-size:60px;"">+</div>","fixation","","",""
"null","","html-keyboard-response","198","2.0.0","267308","60zy6zoy4a7z31h","true","20","m&aumlnnlich","rechts","andere","","","null","","","","","","
      <img class=""person-img"" src=""https://raw.githubusercontent.com/saramff/face-recognition-images/refs/heads/master//men/man_50.jpg"">
      <p class=""person-name"">Gereon</p>
    ","","","",""
"null","","html-keyboard-response","199","2.0.0","268318","60zy6zoy4a7z31h","true","20","m&aumlnnlich","rechts","andere","","","null","","","","","","<div style=""font-size:60px;"">+</div>","fixation","","",""
"null","","html-keyboard-response","200","2.0.0","269327","60zy6zoy4a7z31h","true","20","m&aumlnnlich","rechts","andere","","","null","","","","","","
      <img class=""person-img"" src=""https://raw.githubusercontent.com/saramff/face-recognition-images/refs/heads/master//women/woman_70.jpg"">
      <p class=""person-name"">Carla</p>
    ","","","",""
"null","","html-keyboard-response","201","2.0.0","270340","60zy6zoy4a7z31h","true","20","m&aumlnnlich","rechts","andere","","","null","","","","","","<div style=""font-size:60px;"">+</div>","fixation","","",""
"null","","html-keyboard-response","202","2.0.0","271349","60zy6zoy4a7z31h","true","20","m&aumlnnlich","rechts","andere","","","null","","","","","","
      <img class=""person-img"" src=""https://raw.githubusercontent.com/saramff/face-recognition-images/refs/heads/master//women/woman_40.jpg"">
      <p class=""person-name"">Anja</p>
    ","","","",""
"null","","html-keyboard-response","203","2.0.0","272352","60zy6zoy4a7z31h","true","20","m&aumlnnlich","rechts","andere","","","null","","","","","","<div style=""font-size:60px;"">+</div>","fixation","","",""
"null","","html-keyboard-response","204","2.0.0","273357","60zy6zoy4a7z31h","true","20","m&aumlnnlich","rechts","andere","","","null","","","","","","
      <img class=""person-img"" src=""https://raw.githubusercontent.com/saramff/face-recognition-images/refs/heads/master//men/man_63.jpg"">
      <p class=""person-name"">Johannes</p>
    ","","","",""
"null","","html-keyboard-response","205","2.0.0","274364","60zy6zoy4a7z31h","true","20","m&aumlnnlich","rechts","andere","","","null","","","","","","<div style=""font-size:60px;"">+</div>","fixation","","",""
"null","","html-keyboard-response","206","2.0.0","275372","60zy6zoy4a7z31h","true","20","m&aumlnnlich","rechts","andere","","","null","","","","","","
      <img class=""person-img"" src=""https://raw.githubusercontent.com/saramff/face-recognition-images/refs/heads/master//men/man_84.jpg"">
      <p class=""person-name"">Philipp</p>
    ","","","",""
"null","","html-keyboard-response","207","2.0.0","276381","60zy6zoy4a7z31h","true","20","m&aumlnnlich","rechts","andere","","","null","","","","","","<div style=""font-size:60px;"">+</div>","fixation","","",""
"null","","html-keyboard-response","208","2.0.0","277390","60zy6zoy4a7z31h","true","20","m&aumlnnlich","rechts","andere","","","null","","","","","","
      <img class=""person-img"" src=""https://raw.githubusercontent.com/saramff/face-recognition-images/refs/heads/master//women/woman_80.jpg"">
      <p class=""person-name"">Maja</p>
    ","","","",""
"null","","html-keyboard-response","209","2.0.0","278398","60zy6zoy4a7z31h","true","20","m&aumlnnlich","rechts","andere","","","null","","","","","","<div style=""font-size:60px;"">+</div>","fixation","","",""
"null","","html-keyboard-response","210","2.0.0","279408","60zy6zoy4a7z31h","true","20","m&aumlnnlich","rechts","andere","","","null","","","","","","
      <img class=""person-img"" src=""https://raw.githubusercontent.com/saramff/face-recognition-images/refs/heads/master//men/man_40.jpg"">
      <p class=""person-name"">Clemens</p>
    ","","","",""
"null","","html-keyboard-response","211","2.0.0","280427","60zy6zoy4a7z31h","true","20","m&aumlnnlich","rechts","andere","","","null","","","","","","<div style=""font-size:60px;"">+</div>","fixation","","",""
"null","","html-keyboard-response","212","2.0.0","281429","60zy6zoy4a7z31h","true","20","m&aumlnnlich","rechts","andere","","","null","","","","","","
      <img class=""person-img"" src=""https://raw.githubusercontent.com/saramff/face-recognition-images/refs/heads/master//women/woman_26.jpg"">
      <p class=""person-name"">Katharina</p>
    ","","","",""
"null","","html-keyboard-response","213","2.0.0","282437","60zy6zoy4a7z31h","true","20","m&aumlnnlich","rechts","andere","","","null","","","","","","<div style=""font-size:60px;"">+</div>","fixation","","",""
"null","","html-keyboard-response","214","2.0.0","283447","60zy6zoy4a7z31h","true","20","m&aumlnnlich","rechts","andere","","","null","","","","","","
      <img class=""person-img"" src=""https://raw.githubusercontent.com/saramff/face-recognition-images/refs/heads/master//men/man_44.jpg"">
      <p class=""person-name"">Richard</p>
    ","","","",""
"null","","html-keyboard-response","215","2.0.0","284465","60zy6zoy4a7z31h","true","20","m&aumlnnlich","rechts","andere","","","null","","","","","","<div style=""font-size:60px;"">+</div>","fixation","","",""
"null","","html-keyboard-response","216","2.0.0","285467","60zy6zoy4a7z31h","true","20","m&aumlnnlich","rechts","andere","","","null","","","","","","
      <img class=""person-img"" src=""https://raw.githubusercontent.com/saramff/face-recognition-images/refs/heads/master//men/man_58.jpg"">
      <p class=""person-name"">Jonathan</p>
    ","","","",""
"null","","html-keyboard-response","217","2.0.0","286473","60zy6zoy4a7z31h","true","20","m&aumlnnlich","rechts","andere","","","null","","","","","","<div style=""font-size:60px;"">+</div>","fixation","","",""
"null","","html-keyboard-response","218","2.0.0","287476","60zy6zoy4a7z31h","true","20","m&aumlnnlich","rechts","andere","","","null","","","","","","
      <img class=""person-img"" src=""https://raw.githubusercontent.com/saramff/face-recognition-images/refs/heads/master//women/woman_78.jpg"">
      <p class=""person-name"">Henni</p>
    ","","","",""
"null","","html-keyboard-response","219","2.0.0","288488","60zy6zoy4a7z31h","true","20","m&aumlnnlich","rechts","andere","","","null","","","","","","<div style=""font-size:60px;"">+</div>","fixation","","",""
"null","","html-keyboard-response","220","2.0.0","289494","60zy6zoy4a7z31h","true","20","m&aumlnnlich","rechts","andere","","","null","","","","","","
      <img class=""person-img"" src=""https://raw.githubusercontent.com/saramff/face-recognition-images/refs/heads/master//men/man_1.jpg"">
      <p class=""person-name"">Gabriel</p>
    ","","","",""
"null","","html-keyboard-response","221","2.0.0","290512","60zy6zoy4a7z31h","true","20","m&aumlnnlich","rechts","andere","","","null","","","","","","<div style=""font-size:60px;"">+</div>","fixation","","",""
"null","","html-keyboard-response","222","2.0.0","291520","60zy6zoy4a7z31h","true","20","m&aumlnnlich","rechts","andere","","","null","","","","","","
      <img class=""person-img"" src=""https://raw.githubusercontent.com/saramff/face-recognition-images/refs/heads/master//men/man_69.jpg"">
      <p class=""person-name"">Karsten</p>
    ","","","",""
"null","","html-keyboard-response","223","2.0.0","292532","60zy6zoy4a7z31h","true","20","m&aumlnnlich","rechts","andere","","","null","","","","","","<div style=""font-size:60px;"">+</div>","fixation","","",""
"null","","html-keyboard-response","224","2.0.0","293535","60zy6zoy4a7z31h","true","20","m&aumlnnlich","rechts","andere","","","null","","","","","","
      <img class=""person-img"" src=""https://raw.githubusercontent.com/saramff/face-recognition-images/refs/heads/master//women/woman_28.jpg"">
      <p class=""person-name"">Freya</p>
    ","","","",""
"null","","html-keyboard-response","225","2.0.0","294553","60zy6zoy4a7z31h","true","20","m&aumlnnlich","rechts","andere","","","null","","","","","","<div style=""font-size:60px;"">+</div>","fixation","","",""
"null","","html-keyboard-response","226","2.0.0","295564","60zy6zoy4a7z31h","true","20","m&aumlnnlich","rechts","andere","","","null","","","","","","
      <img class=""person-img"" src=""https://raw.githubusercontent.com/saramff/face-recognition-images/refs/heads/master//women/woman_91.jpg"">
      <p class=""person-name"">Sina</p>
    ","","","",""
"null","","html-keyboard-response","227","2.0.0","296571","60zy6zoy4a7z31h","true","20","m&aumlnnlich","rechts","andere","","","null","","","","","","<div style=""font-size:60px;"">+</div>","fixation","","",""
"null","","html-keyboard-response","228","2.0.0","297577","60zy6zoy4a7z31h","true","20","m&aumlnnlich","rechts","andere","","","null","","","","","","
      <img class=""person-img"" src=""https://raw.githubusercontent.com/saramff/face-recognition-images/refs/heads/master//men/man_3.jpg"">
      <p class=""person-name"">Volker</p>
    ","","","",""
"null","","html-keyboard-response","229","2.0.0","298597","60zy6zoy4a7z31h","true","20","m&aumlnnlich","rechts","andere","","","null","","","","","","<div style=""font-size:60px;"">+</div>","fixation","","",""
"null","","html-keyboard-response","230","2.0.0","299604","60zy6zoy4a7z31h","true","20","m&aumlnnlich","rechts","andere","","","null","","","","","","
      <img class=""person-img"" src=""https://raw.githubusercontent.com/saramff/face-recognition-images/refs/heads/master//women/woman_61.jpg"">
      <p class=""person-name"">Rosalie</p>
    ","","","",""
"null","","html-keyboard-response","231","2.0.0","300612","60zy6zoy4a7z31h","true","20","m&aumlnnlich","rechts","andere","","","null","","","","","","<div style=""font-size:60px;"">+</div>","fixation","","",""
"null","","html-keyboard-response","232","2.0.0","301620","60zy6zoy4a7z31h","true","20","m&aumlnnlich","rechts","andere","","","null","","","","","","
      <img class=""person-img"" src=""https://raw.githubusercontent.com/saramff/face-recognition-images/refs/heads/master//men/man_34.jpg"">
      <p class=""person-name"">Friedrich</p>
    ","","","",""
"null","","html-keyboard-response","233","2.0.0","302628","60zy6zoy4a7z31h","true","20","m&aumlnnlich","rechts","andere","","","null","","","","","","<div style=""font-size:60px;"">+</div>","fixation","","",""
"null","","html-keyboard-response","234","2.0.0","303637","60zy6zoy4a7z31h","true","20","m&aumlnnlich","rechts","andere","","","null","","","","","","
      <img class=""person-img"" src=""https://raw.githubusercontent.com/saramff/face-recognition-images/refs/heads/master//women/woman_32.jpg"">
      <p class=""person-name"">Ida</p>
    ","","","",""
"null","","html-keyboard-response","235","2.0.0","304644","60zy6zoy4a7z31h","true","20","m&aumlnnlich","rechts","andere","","","null","","","","","","<div style=""font-size:60px;"">+</div>","fixation","","",""
"null","","html-keyboard-response","236","2.0.0","305646","60zy6zoy4a7z31h","true","20","m&aumlnnlich","rechts","andere","","","null","","","","","","
      <img class=""person-img"" src=""https://raw.githubusercontent.com/saramff/face-recognition-images/refs/heads/master//women/woman_46.jpg"">
      <p class=""person-name"">Frauke</p>
    ","","","",""
"null","","html-keyboard-response","237","2.0.0","306664","60zy6zoy4a7z31h","true","20","m&aumlnnlich","rechts","andere","","","null","","","","","","<div style=""font-size:60px;"">+</div>","fixation","","",""
"null","","html-keyboard-response","238","2.0.0","307669","60zy6zoy4a7z31h","true","20","m&aumlnnlich","rechts","andere","","","null","","","","","","
      <img class=""person-img"" src=""https://raw.githubusercontent.com/saramff/face-recognition-images/refs/heads/master//men/man_11.jpg"">
      <p class=""person-name"">Ulrich</p>
    ","","","",""
"null","","html-keyboard-response","239","2.0.0","308675","60zy6zoy4a7z31h","true","20","m&aumlnnlich","rechts","andere","","","null","","","","","","<div style=""font-size:60px;"">+</div>","fixation","","",""
"null","","html-keyboard-response","240","2.0.0","309686","60zy6zoy4a7z31h","true","20","m&aumlnnlich","rechts","andere","","","null","","","","","","
      <img class=""person-img"" src=""https://raw.githubusercontent.com/saramff/face-recognition-images/refs/heads/master//men/man_37.jpg"">
      <p class=""person-name"">Patrick</p>
    ","","","",""
"null","","html-keyboard-response","241","2.0.0","310692","60zy6zoy4a7z31h","true","20","m&aumlnnlich","rechts","andere","","","null","","","","","","<div style=""font-size:60px;"">+</div>","fixation","","",""
"null","","html-keyboard-response","242","2.0.0","311700","60zy6zoy4a7z31h","true","20","m&aumlnnlich","rechts","andere","","","null","","","","","","
      <img class=""person-img"" src=""https://raw.githubusercontent.com/saramff/face-recognition-images/refs/heads/master//men/man_67.jpg"">
      <p class=""person-name"">Tobias</p>
    ","","","",""
"null","","html-keyboard-response","243","2.0.0","312720","60zy6zoy4a7z31h","true","20","m&aumlnnlich","rechts","andere","","","null","","","","","","<div style=""font-size:60px;"">+</div>","fixation","","",""
"null","","html-keyboard-response","244","2.0.0","313724","60zy6zoy4a7z31h","true","20","m&aumlnnlich","rechts","andere","","","null","","","","","","
      <img class=""person-img"" src=""https://raw.githubusercontent.com/saramff/face-recognition-images/refs/heads/master//women/woman_42.jpg"">
      <p class=""person-name"">Janina</p>
    ","","","",""
"null","","html-keyboard-response","245","2.0.0","314731","60zy6zoy4a7z31h","true","20","m&aumlnnlich","rechts","andere","","","null","","","","","","<div style=""font-size:60px;"">+</div>","fixation","","",""
"null","","html-keyboard-response","246","2.0.0","315733","60zy6zoy4a7z31h","true","20","m&aumlnnlich","rechts","andere","","","null","","","","","","
      <img class=""person-img"" src=""https://raw.githubusercontent.com/saramff/face-recognition-images/refs/heads/master//women/woman_24.jpg"">
      <p class=""person-name"">Jasmin</p>
    ","","","",""
"null","","html-keyboard-response","247","2.0.0","316750","60zy6zoy4a7z31h","true","20","m&aumlnnlich","rechts","andere","","","null","","","","","","<div style=""font-size:60px;"">+</div>","fixation","","",""
"null","","html-keyboard-response","248","2.0.0","317759","60zy6zoy4a7z31h","true","20","m&aumlnnlich","rechts","andere","","","null","","","","","","
      <img class=""person-img"" src=""https://raw.githubusercontent.com/saramff/face-recognition-images/refs/heads/master//women/woman_92.jpg"">
      <p class=""person-name"">Ella</p>
    ","","","",""
"null","","html-keyboard-response","249","2.0.0","318773","60zy6zoy4a7z31h","true","20","m&aumlnnlich","rechts","andere","","","null","","","","","","<div style=""font-size:60px;"">+</div>","fixation","","",""
"null","","html-keyboard-response","250","2.0.0","319780","60zy6zoy4a7z31h","true","20","m&aumlnnlich","rechts","andere","","","null","","","","","","
      <img class=""person-img"" src=""https://raw.githubusercontent.com/saramff/face-recognition-images/refs/heads/master//men/man_51.jpg"">
      <p class=""person-name"">Leonard</p>
    ","","","",""
"null","","html-keyboard-response","251","2.0.0","320786","60zy6zoy4a7z31h","true","20","m&aumlnnlich","rechts","andere","","","null","","","","","","<div style=""font-size:60px;"">+</div>","fixation","","",""
"null","","html-keyboard-response","252","2.0.0","321800","60zy6zoy4a7z31h","true","20","m&aumlnnlich","rechts","andere","","","null","","","","","","
      <img class=""person-img"" src=""https://raw.githubusercontent.com/saramff/face-recognition-images/refs/heads/master//women/woman_73.jpg"">
      <p class=""person-name"">Ayla</p>
    ","","","",""
"null","","html-keyboard-response","253","2.0.0","322813","60zy6zoy4a7z31h","true","20","m&aumlnnlich","rechts","andere","","","null","","","","","","<div style=""font-size:60px;"">+</div>","fixation","","",""
"null","","html-keyboard-response","254","2.0.0","323818","60zy6zoy4a7z31h","true","20","m&aumlnnlich","rechts","andere","","","null","","","","","","
      <img class=""person-img"" src=""https://raw.githubusercontent.com/saramff/face-recognition-images/refs/heads/master//men/man_48.jpg"">
      <p class=""person-name"">Fabian</p>
    ","","","",""
"null","","html-keyboard-response","255","2.0.0","324837","60zy6zoy4a7z31h","true","20","m&aumlnnlich","rechts","andere","","","null","","","","","","<div style=""font-size:60px;"">+</div>","fixation","","",""
"null","","html-keyboard-response","256","2.0.0","325843","60zy6zoy4a7z31h","true","20","m&aumlnnlich","rechts","andere","","","null","","","","","","
      <img class=""person-img"" src=""https://raw.githubusercontent.com/saramff/face-recognition-images/refs/heads/master//men/man_36.jpg"">
      <p class=""person-name"">Karl</p>
    ","","","",""
"null","","html-keyboard-response","257","2.0.0","326851","60zy6zoy4a7z31h","true","20","m&aumlnnlich","rechts","andere","","","null","","","","","","<div style=""font-size:60px;"">+</div>","fixation","","",""
"null","","html-keyboard-response","258","2.0.0","327856","60zy6zoy4a7z31h","true","20","m&aumlnnlich","rechts","andere","","","null","","","","","","
      <img class=""person-img"" src=""https://raw.githubusercontent.com/saramff/face-recognition-images/refs/heads/master//women/woman_5.jpg"">
      <p class=""person-name"">Yara</p>
    ","","","",""
"null","","html-keyboard-response","259","2.0.0","328861","60zy6zoy4a7z31h","true","20","m&aumlnnlich","rechts","andere","","","null","","","","","","<div style=""font-size:60px;"">+</div>","fixation","","",""
"null","","html-keyboard-response","260","2.0.0","329872","60zy6zoy4a7z31h","true","20","m&aumlnnlich","rechts","andere","","","null","","","","","","
      <img class=""person-img"" src=""https://raw.githubusercontent.com/saramff/face-recognition-images/refs/heads/master//women/woman_22.jpg"">
      <p class=""person-name"">Selma</p>
    ","","","",""
"null","","html-keyboard-response","261","2.0.0","330892","60zy6zoy4a7z31h","true","20","m&aumlnnlich","rechts","andere","","","null","","","","","","<div style=""font-size:60px;"">+</div>","fixation","","",""
"null","","html-keyboard-response","262","2.0.0","331903","60zy6zoy4a7z31h","true","20","m&aumlnnlich","rechts","andere","","","null","","","","","","
      <img class=""person-img"" src=""https://raw.githubusercontent.com/saramff/face-recognition-images/refs/heads/master//women/woman_34.jpg"">
      <p class=""person-name"">Karlotta</p>
    ","","","",""
"null","","html-keyboard-response","263","2.0.0","332907","60zy6zoy4a7z31h","true","20","m&aumlnnlich","rechts","andere","","","null","","","","","","<div style=""font-size:60px;"">+</div>","fixation","","",""
"null","","html-keyboard-response","264","2.0.0","333920","60zy6zoy4a7z31h","true","20","m&aumlnnlich","rechts","andere","","","null","","","","","","
      <img class=""person-img"" src=""https://raw.githubusercontent.com/saramff/face-recognition-images/refs/heads/master//men/man_38.jpg"">
      <p class=""person-name"">Udo</p>
    ","","","",""
"null","","html-keyboard-response","265","2.0.0","334926","60zy6zoy4a7z31h","true","20","m&aumlnnlich","rechts","andere","","","null","","","","","","<div style=""font-size:60px;"">+</div>","fixation","","",""
"null","","html-keyboard-response","266","2.0.0","335931","60zy6zoy4a7z31h","true","20","m&aumlnnlich","rechts","andere","","","null","","","","","","
      <img class=""person-img"" src=""https://raw.githubusercontent.com/saramff/face-recognition-images/refs/heads/master//men/man_57.jpg"">
      <p class=""person-name"">Florian</p>
    ","","","",""
"null","","html-keyboard-response","267","2.0.0","336943","60zy6zoy4a7z31h","true","20","m&aumlnnlich","rechts","andere","","","null","","","","","","<div style=""font-size:60px;"">+</div>","fixation","","",""
"null","","html-keyboard-response","268","2.0.0","337947","60zy6zoy4a7z31h","true","20","m&aumlnnlich","rechts","andere","","","null","","","","","","
      <img class=""person-img"" src=""https://raw.githubusercontent.com/saramff/face-recognition-images/refs/heads/master//women/woman_2.jpg"">
      <p class=""person-name"">Klara</p>
    ","","","",""
"null","","html-keyboard-response","269","2.0.0","338957","60zy6zoy4a7z31h","true","20","m&aumlnnlich","rechts","andere","","","null","","","","","","<div style=""font-size:60px;"">+</div>","fixation","","",""
"null","","html-keyboard-response","270","2.0.0","339964","60zy6zoy4a7z31h","true","20","m&aumlnnlich","rechts","andere","","","null","","","","","","
      <img class=""person-img"" src=""https://raw.githubusercontent.com/saramff/face-recognition-images/refs/heads/master//women/woman_75.jpg"">
      <p class=""person-name"">Ariane</p>
    ","","","",""
"null","","html-keyboard-response","271","2.0.0","340975","60zy6zoy4a7z31h","true","20","m&aumlnnlich","rechts","andere","","","null","","","","","","<div style=""font-size:60px;"">+</div>","fixation","","",""
"null","","html-keyboard-response","272","2.0.0","341979","60zy6zoy4a7z31h","true","20","m&aumlnnlich","rechts","andere","","","null","","","","","","
      <img class=""person-img"" src=""https://raw.githubusercontent.com/saramff/face-recognition-images/refs/heads/master//women/woman_27.jpg"">
      <p class=""person-name"">Fabienne</p>
    ","","","",""
"null","","html-keyboard-response","273","2.0.0","342996","60zy6zoy4a7z31h","true","20","m&aumlnnlich","rechts","andere","","","null","","","","","","<div style=""font-size:60px;"">+</div>","fixation","","",""
"null","","html-keyboard-response","274","2.0.0","344001","60zy6zoy4a7z31h","true","20","m&aumlnnlich","rechts","andere","","","null","","","","","","
      <img class=""person-img"" src=""https://raw.githubusercontent.com/saramff/face-recognition-images/refs/heads/master//men/man_24.jpg"">
      <p class=""person-name"">Raphael</p>
    ","","","",""
"null","","html-keyboard-response","275","2.0.0","345021","60zy6zoy4a7z31h","true","20","m&aumlnnlich","rechts","andere","","","null","","","","","","<div style=""font-size:60px;"">+</div>","fixation","","",""
"null","","html-keyboard-response","276","2.0.0","346024","60zy6zoy4a7z31h","true","20","m&aumlnnlich","rechts","andere","","","null","","","","","","
      <img class=""person-img"" src=""https://raw.githubusercontent.com/saramff/face-recognition-images/refs/heads/master//men/man_23.jpg"">
      <p class=""person-name"">Jakob</p>
    ","","","",""
"null","","html-keyboard-response","277","2.0.0","347042","60zy6zoy4a7z31h","true","20","m&aumlnnlich","rechts","andere","","","null","","","","","","<div style=""font-size:60px;"">+</div>","fixation","","",""
"null","","html-keyboard-response","278","2.0.0","348051","60zy6zoy4a7z31h","true","20","m&aumlnnlich","rechts","andere","","","null","","","","","","
      <img class=""person-img"" src=""https://raw.githubusercontent.com/saramff/face-recognition-images/refs/heads/master//men/man_92.jpg"">
      <p class=""person-name"">Sebastian</p>
    ","","","",""
"null","","html-keyboard-response","279","2.0.0","349064","60zy6zoy4a7z31h","true","20","m&aumlnnlich","rechts","andere","","","null","","","","","","<div style=""font-size:60px;"">+</div>","fixation","","",""
"null","","html-keyboard-response","280","2.0.0","350076","60zy6zoy4a7z31h","true","20","m&aumlnnlich","rechts","andere","","","null","","","","","","
      <img class=""person-img"" src=""https://raw.githubusercontent.com/saramff/face-recognition-images/refs/heads/master//women/woman_69.jpg"">
      <p class=""person-name"">Johanna</p>
    ","","","",""
"null","","html-keyboard-response","281","2.0.0","351087","60zy6zoy4a7z31h","true","20","m&aumlnnlich","rechts","andere","","","null","","","","","","<div style=""font-size:60px;"">+</div>","fixation","","",""
"null","","html-keyboard-response","282","2.0.0","352096","60zy6zoy4a7z31h","true","20","m&aumlnnlich","rechts","andere","","","null","","","","","","
      <img class=""person-img"" src=""https://raw.githubusercontent.com/saramff/face-recognition-images/refs/heads/master//women/woman_50.jpg"">
      <p class=""person-name"">Michaela</p>
    ","","","",""
"null","","html-keyboard-response","283","2.0.0","353111","60zy6zoy4a7z31h","true","20","m&aumlnnlich","rechts","andere","","","null","","","","","","<div style=""font-size:60px;"">+</div>","fixation","","",""
"null","","html-keyboard-response","284","2.0.0","354114","60zy6zoy4a7z31h","true","20","m&aumlnnlich","rechts","andere","","","null","","","","","","
      <img class=""person-img"" src=""https://raw.githubusercontent.com/saramff/face-recognition-images/refs/heads/master//women/woman_65.jpg"">
      <p class=""person-name"">Liana</p>
    ","","","",""
"null","","html-keyboard-response","285","2.0.0","355127","60zy6zoy4a7z31h","true","20","m&aumlnnlich","rechts","andere","","","null","","","","","","<div style=""font-size:60px;"">+</div>","fixation","","",""
"null","","html-keyboard-response","286","2.0.0","356141","60zy6zoy4a7z31h","true","20","m&aumlnnlich","rechts","andere","","","null","","","","","","
      <img class=""person-img"" src=""https://raw.githubusercontent.com/saramff/face-recognition-images/refs/heads/master//men/man_46.jpg"">
      <p class=""person-name"">Konstantin</p>
    ","","","",""
"null","","html-keyboard-response","287","2.0.0","357148","60zy6zoy4a7z31h","true","20","m&aumlnnlich","rechts","andere","","","null","","","","","","<div style=""font-size:60px;"">+</div>","fixation","","",""
"null","","html-keyboard-response","288","2.0.0","358152","60zy6zoy4a7z31h","true","20","m&aumlnnlich","rechts","andere","","","null","","","","","","
      <img class=""person-img"" src=""https://raw.githubusercontent.com/saramff/face-recognition-images/refs/heads/master//women/woman_18.jpg"">
      <p class=""person-name"">Malou</p>
    ","","","",""
"null","","html-keyboard-response","289","2.0.0","359171","60zy6zoy4a7z31h","true","20","m&aumlnnlich","rechts","andere","","","null","","","","","","<div style=""font-size:60px;"">+</div>","fixation","","",""
"null","","html-keyboard-response","290","2.0.0","360179","60zy6zoy4a7z31h","true","20","m&aumlnnlich","rechts","andere","","","null","","","","","","
      <img class=""person-img"" src=""https://raw.githubusercontent.com/saramff/face-recognition-images/refs/heads/master//women/woman_35.jpg"">
      <p class=""person-name"">Sophia</p>
    ","","","",""
"null","","html-keyboard-response","291","2.0.0","361197","60zy6zoy4a7z31h","true","20","m&aumlnnlich","rechts","andere","","","null","","","","","","<div style=""font-size:60px;"">+</div>","fixation","","",""
"null","","html-keyboard-response","292","2.0.0","362203","60zy6zoy4a7z31h","true","20","m&aumlnnlich","rechts","andere","","","null","","","","","","
      <img class=""person-img"" src=""https://raw.githubusercontent.com/saramff/face-recognition-images/refs/heads/master//women/woman_66.jpg"">
      <p class=""person-name"">Daniela</p>
    ","","","",""
"null","","html-keyboard-response","293","2.0.0","363219","60zy6zoy4a7z31h","true","20","m&aumlnnlich","rechts","andere","","","null","","","","","","<div style=""font-size:60px;"">+</div>","fixation","","",""
"null","","html-keyboard-response","294","2.0.0","364230","60zy6zoy4a7z31h","true","20","m&aumlnnlich","rechts","andere","","","null","","","","","","
      <img class=""person-img"" src=""https://raw.githubusercontent.com/saramff/face-recognition-images/refs/heads/master//women/woman_72.jpg"">
      <p class=""person-name"">Helena</p>
    ","","","",""
"null","","html-keyboard-response","295","2.0.0","365236","60zy6zoy4a7z31h","true","20","m&aumlnnlich","rechts","andere","","","null","","","","","","<div style=""font-size:60px;"">+</div>","fixation","","",""
"null","","html-keyboard-response","296","2.0.0","366238","60zy6zoy4a7z31h","true","20","m&aumlnnlich","rechts","andere","","","null","","","","","","
      <img class=""person-img"" src=""https://raw.githubusercontent.com/saramff/face-recognition-images/refs/heads/master//women/woman_4.jpg"">
      <p class=""person-name"">Isabel</p>
    ","","","",""
"null","","html-keyboard-response","297","2.0.0","367242","60zy6zoy4a7z31h","true","20","m&aumlnnlich","rechts","andere","","","null","","","","","","<div style=""font-size:60px;"">+</div>","fixation","","",""
"null","","html-keyboard-response","298","2.0.0","368251","60zy6zoy4a7z31h","true","20","m&aumlnnlich","rechts","andere","","","null","","","","","","
      <img class=""person-img"" src=""https://raw.githubusercontent.com/saramff/face-recognition-images/refs/heads/master//women/woman_43.jpg"">
      <p class=""person-name"">Marla</p>
    ","","","",""
"null","","html-keyboard-response","299","2.0.0","369253","60zy6zoy4a7z31h","true","20","m&aumlnnlich","rechts","andere","","","null","","","","","","<div style=""font-size:60px;"">+</div>","fixation","","",""
"null","","html-keyboard-response","300","2.0.0","370260","60zy6zoy4a7z31h","true","20","m&aumlnnlich","rechts","andere","","","null","","","","","","
      <img class=""person-img"" src=""https://raw.githubusercontent.com/saramff/face-recognition-images/refs/heads/master//women/woman_89.jpg"">
      <p class=""person-name"">Ariane</p>
    ","","","",""
"null","","html-keyboard-response","301","2.0.0","371264","60zy6zoy4a7z31h","true","20","m&aumlnnlich","rechts","andere","","","null","","","","","","<div style=""font-size:60px;"">+</div>","fixation","","",""
"null","","html-keyboard-response","302","2.0.0","372279","60zy6zoy4a7z31h","true","20","m&aumlnnlich","rechts","andere","","","null","","","","","","
      <img class=""person-img"" src=""https://raw.githubusercontent.com/saramff/face-recognition-images/refs/heads/master//women/woman_93.jpg"">
      <p class=""person-name"">Julia</p>
    ","","","",""
"null","","html-keyboard-response","303","2.0.0","373295","60zy6zoy4a7z31h","true","20","m&aumlnnlich","rechts","andere","","","null","","","","","","<div style=""font-size:60px;"">+</div>","fixation","","",""
"null","","html-keyboard-response","304","2.0.0","374307","60zy6zoy4a7z31h","true","20","m&aumlnnlich","rechts","andere","","","null","","","","","","
      <img class=""person-img"" src=""https://raw.githubusercontent.com/saramff/face-recognition-images/refs/heads/master//men/man_55.jpg"">
      <p class=""person-name"">Tim</p>
    ","","","",""
"null","","html-keyboard-response","305","2.0.0","375319","60zy6zoy4a7z31h","true","20","m&aumlnnlich","rechts","andere","","","null","","","","","","<div style=""font-size:60px;"">+</div>","fixation","","",""
"null","","html-keyboard-response","306","2.0.0","376333","60zy6zoy4a7z31h","true","20","m&aumlnnlich","rechts","andere","","","null","","","","","","
      <img class=""person-img"" src=""https://raw.githubusercontent.com/saramff/face-recognition-images/refs/heads/master//men/man_21.jpg"">
      <p class=""person-name"">Michael</p>
    ","","","",""
"null","","html-keyboard-response","307","2.0.0","377347","60zy6zoy4a7z31h","true","20","m&aumlnnlich","rechts","andere","","","null","","","","","","<div style=""font-size:60px;"">+</div>","fixation","","",""
"null","","html-keyboard-response","308","2.0.0","378350","60zy6zoy4a7z31h","true","20","m&aumlnnlich","rechts","andere","","","null","","","","","","
      <img class=""person-img"" src=""https://raw.githubusercontent.com/saramff/face-recognition-images/refs/heads/master//women/woman_56.jpg"">
      <p class=""person-name"">Beate</p>
    ","","","",""
"null","","html-keyboard-response","309","2.0.0","379369","60zy6zoy4a7z31h","true","20","m&aumlnnlich","rechts","andere","","","null","","","","","","<div style=""font-size:60px;"">+</div>","fixation","","",""
"null","","html-keyboard-response","310","2.0.0","380371","60zy6zoy4a7z31h","true","20","m&aumlnnlich","rechts","andere","","","null","","","","","","
      <img class=""person-img"" src=""https://raw.githubusercontent.com/saramff/face-recognition-images/refs/heads/master//women/woman_7.jpg"">
      <p class=""person-name"">Elly</p>
    ","","","",""
"null","","html-keyboard-response","311","2.0.0","381386","60zy6zoy4a7z31h","true","20","m&aumlnnlich","rechts","andere","","","null","","","","","","<div style=""font-size:60px;"">+</div>","fixation","","",""
"null","","html-keyboard-response","312","2.0.0","382396","60zy6zoy4a7z31h","true","20","m&aumlnnlich","rechts","andere","","","null","","","","","","
      <img class=""person-img"" src=""https://raw.githubusercontent.com/saramff/face-recognition-images/refs/heads/master//women/woman_74.jpg"">
      <p class=""person-name"">Marlene</p>
    ","","","",""
"null","","html-keyboard-response","313","2.0.0","383412","60zy6zoy4a7z31h","true","20","m&aumlnnlich","rechts","andere","","","null","","","","","","<div style=""font-size:60px;"">+</div>","fixation","","",""
"null","","html-keyboard-response","314","2.0.0","384420","60zy6zoy4a7z31h","true","20","m&aumlnnlich","rechts","andere","","","null","","","","","","
      <img class=""person-img"" src=""https://raw.githubusercontent.com/saramff/face-recognition-images/refs/heads/master//men/man_82.jpg"">
      <p class=""person-name"">Hendrik</p>
    ","","","",""
"null","","html-keyboard-response","315","2.0.0","385430","60zy6zoy4a7z31h","true","20","m&aumlnnlich","rechts","andere","","","null","","","","","","<div style=""font-size:60px;"">+</div>","fixation","","",""
"null","","html-keyboard-response","316","2.0.0","386438","60zy6zoy4a7z31h","true","20","m&aumlnnlich","rechts","andere","","","null","","","","","","
      <img class=""person-img"" src=""https://raw.githubusercontent.com/saramff/face-recognition-images/refs/heads/master//women/woman_52.jpg"">
      <p class=""person-name"">Laura</p>
    ","","","",""
"null","","html-keyboard-response","317","2.0.0","387444","60zy6zoy4a7z31h","true","20","m&aumlnnlich","rechts","andere","","","null","","","","","","<div style=""font-size:60px;"">+</div>","fixation","","",""
"null","","html-keyboard-response","318","2.0.0","388449","60zy6zoy4a7z31h","true","20","m&aumlnnlich","rechts","andere","","","null","","","","","","
      <img class=""person-img"" src=""https://raw.githubusercontent.com/saramff/face-recognition-images/refs/heads/master//men/man_53.jpg"">
      <p class=""person-name"">J&ouml;rg</p>
    ","","","",""
"null","","html-keyboard-response","319","2.0.0","389458","60zy6zoy4a7z31h","true","20","m&aumlnnlich","rechts","andere","","","null","","","","","","<div style=""font-size:60px;"">+</div>","fixation","","",""
"null","","html-keyboard-response","320","2.0.0","390468","60zy6zoy4a7z31h","true","20","m&aumlnnlich","rechts","andere","","","null","","","","","","
      <img class=""person-img"" src=""https://raw.githubusercontent.com/saramff/face-recognition-images/refs/heads/master//women/woman_47.jpg"">
      <p class=""person-name"">Marta</p>
    ","","","",""
"null","","html-keyboard-response","321","2.0.0","391480","60zy6zoy4a7z31h","true","20","m&aumlnnlich","rechts","andere","","","null","","","","","","<div style=""font-size:60px;"">+</div>","fixation","","",""
"null","","html-keyboard-response","322","2.0.0","392492","60zy6zoy4a7z31h","true","20","m&aumlnnlich","rechts","andere","","","null","","","","","","
      <img class=""person-img"" src=""https://raw.githubusercontent.com/saramff/face-recognition-images/refs/heads/master//women/woman_60.jpg"">
      <p class=""person-name"">Pia</p>
    ","","","",""
"null","","html-keyboard-response","323","2.0.0","393515","60zy6zoy4a7z31h","true","20","m&aumlnnlich","rechts","andere","","","null","","","","","","<div style=""font-size:60px;"">+</div>","fixation","","",""
"null","","html-keyboard-response","324","2.0.0","394521","60zy6zoy4a7z31h","true","20","m&aumlnnlich","rechts","andere","","","null","","","","","","
      <img class=""person-img"" src=""https://raw.githubusercontent.com/saramff/face-recognition-images/refs/heads/master//women/woman_86.jpg"">
      <p class=""person-name"">Lucie</p>
    ","","","",""
"null","","html-keyboard-response","325","2.0.0","395539","60zy6zoy4a7z31h","true","20","m&aumlnnlich","rechts","andere","","","null","","","","","","<div style=""font-size:60px;"">+</div>","fixation","","",""
"null","","html-keyboard-response","326","2.0.0","396547","60zy6zoy4a7z31h","true","20","m&aumlnnlich","rechts","andere","","","null","","","","","","
      <img class=""person-img"" src=""https://raw.githubusercontent.com/saramff/face-recognition-images/refs/heads/master//men/man_65.jpg"">
      <p class=""person-name"">Frank</p>
    ","","","",""
"null","","html-keyboard-response","327","2.0.0","397555","60zy6zoy4a7z31h","true","20","m&aumlnnlich","rechts","andere","","","null","","","","","","<div style=""font-size:60px;"">+</div>","fixation","","",""
"null","","html-keyboard-response","328","2.0.0","398567","60zy6zoy4a7z31h","true","20","m&aumlnnlich","rechts","andere","","","null","","","","","","
      <img class=""person-img"" src=""https://raw.githubusercontent.com/saramff/face-recognition-images/refs/heads/master//women/woman_76.jpg"">
      <p class=""person-name"">Marie</p>
    ","","","",""
"null","","html-keyboard-response","329","2.0.0","399572","60zy6zoy4a7z31h","true","20","m&aumlnnlich","rechts","andere","","","null","","","","","","<div style=""font-size:60px;"">+</div>","fixation","","",""
"null","","html-keyboard-response","330","2.0.0","400581","60zy6zoy4a7z31h","true","20","m&aumlnnlich","rechts","andere","","","null","","","","","","
      <img class=""person-img"" src=""https://raw.githubusercontent.com/saramff/face-recognition-images/refs/heads/master//men/man_15.jpg"">
      <p class=""person-name"">Max</p>
    ","","","",""
"null","","html-keyboard-response","331","2.0.0","401606","60zy6zoy4a7z31h","true","20","m&aumlnnlich","rechts","andere","","","null","","","","","","<div style=""font-size:60px;"">+</div>","fixation","","",""
"null","","html-keyboard-response","332","2.0.0","402619","60zy6zoy4a7z31h","true","20","m&aumlnnlich","rechts","andere","","","null","","","","","","
      <img class=""person-img"" src=""https://raw.githubusercontent.com/saramff/face-recognition-images/refs/heads/master//men/man_66.jpg"">
      <p class=""person-name"">Noah</p>
    ","","","",""
"null","","html-keyboard-response","333","2.0.0","403628","60zy6zoy4a7z31h","true","20","m&aumlnnlich","rechts","andere","","","null","","","","","","<div style=""font-size:60px;"">+</div>","fixation","","",""
"null","","html-keyboard-response","334","2.0.0","404635","60zy6zoy4a7z31h","true","20","m&aumlnnlich","rechts","andere","","","null","","","","","","
      <img class=""person-img"" src=""https://raw.githubusercontent.com/saramff/face-recognition-images/refs/heads/master//women/woman_1.jpg"">
      <p class=""person-name"">Veronika</p>
    ","","","",""
"null","","html-keyboard-response","335","2.0.0","405646","60zy6zoy4a7z31h","true","20","m&aumlnnlich","rechts","andere","","","null","","","","","","<div style=""font-size:60px;"">+</div>","fixation","","",""
"null","","html-keyboard-response","336","2.0.0","406650","60zy6zoy4a7z31h","true","20","m&aumlnnlich","rechts","andere","","","null","","","","","","
      <img class=""person-img"" src=""https://raw.githubusercontent.com/saramff/face-recognition-images/refs/heads/master//men/man_5.jpg"">
      <p class=""person-name"">Oskar</p>
    ","","","",""
"null","","html-keyboard-response","337","2.0.0","407658","60zy6zoy4a7z31h","true","20","m&aumlnnlich","rechts","andere","","","null","","","","","","<div style=""font-size:60px;"">+</div>","fixation","","",""
"null","","html-keyboard-response","338","2.0.0","408665","60zy6zoy4a7z31h","true","20","m&aumlnnlich","rechts","andere","","","null","","","","","","
      <img class=""person-img"" src=""https://raw.githubusercontent.com/saramff/face-recognition-images/refs/heads/master//men/man_78.jpg"">
      <p class=""person-name"">Valentin</p>
    ","","","",""
"null","","html-keyboard-response","339","2.0.0","409686","60zy6zoy4a7z31h","true","20","m&aumlnnlich","rechts","andere","","","null","","","","","","<div style=""font-size:60px;"">+</div>","fixation","","",""
"null","","html-keyboard-response","340","2.0.0","410689","60zy6zoy4a7z31h","true","20","m&aumlnnlich","rechts","andere","","","null","","","","","","
      <img class=""person-img"" src=""https://raw.githubusercontent.com/saramff/face-recognition-images/refs/heads/master//women/woman_82.jpg"">
      <p class=""person-name"">Carina</p>
    ","","","",""
"null","","html-keyboard-response","341","2.0.0","411698","60zy6zoy4a7z31h","true","20","m&aumlnnlich","rechts","andere","","","null","","","","","","<div style=""font-size:60px;"">+</div>","fixation","","",""
"null","","html-keyboard-response","342","2.0.0","412709","60zy6zoy4a7z31h","true","20","m&aumlnnlich","rechts","andere","","","null","","","","","","
      <img class=""person-img"" src=""https://raw.githubusercontent.com/saramff/face-recognition-images/refs/heads/master//men/man_45.jpg"">
      <p class=""person-name"">Markus</p>
    ","","","",""
"null","","html-keyboard-response","343","2.0.0","413729","60zy6zoy4a7z31h","true","20","m&aumlnnlich","rechts","andere","","","null","","","","","","<div style=""font-size:60px;"">+</div>","fixation","","",""
"null","","html-keyboard-response","344","2.0.0","414747","60zy6zoy4a7z31h","true","20","m&aumlnnlich","rechts","andere","","","null","","","","","","
      <img class=""person-img"" src=""https://raw.githubusercontent.com/saramff/face-recognition-images/refs/heads/master//men/man_52.jpg"">
      <p class=""person-name"">Ingo</p>
    ","","","",""
"null","","html-keyboard-response","345","2.0.0","415762","60zy6zoy4a7z31h","true","20","m&aumlnnlich","rechts","andere","","","null","","","","","","<div style=""font-size:60px;"">+</div>","fixation","","",""
"null","","html-keyboard-response","346","2.0.0","416765","60zy6zoy4a7z31h","true","20","m&aumlnnlich","rechts","andere","","","null","","","","","","
      <img class=""person-img"" src=""https://raw.githubusercontent.com/saramff/face-recognition-images/refs/heads/master//women/woman_30.jpg"">
      <p class=""person-name"">Nora</p>
    ","","","",""
"null","","html-keyboard-response","347","2.0.0","417779","60zy6zoy4a7z31h","true","20","m&aumlnnlich","rechts","andere","","","null","","","","","","<div style=""font-size:60px;"">+</div>","fixation","","",""
"null","","html-keyboard-response","348","2.0.0","418788","60zy6zoy4a7z31h","true","20","m&aumlnnlich","rechts","andere","","","null","","","","","","
      <img class=""person-img"" src=""https://raw.githubusercontent.com/saramff/face-recognition-images/refs/heads/master//men/man_56.jpg"">
      <p class=""person-name"">Simon</p>
    ","","","",""
"null","","html-keyboard-response","349","2.0.0","419810","60zy6zoy4a7z31h","true","20","m&aumlnnlich","rechts","andere","","","null","","","","","","<div style=""font-size:60px;"">+</div>","fixation","","",""
"null","","html-keyboard-response","350","2.0.0","420819","60zy6zoy4a7z31h","true","20","m&aumlnnlich","rechts","andere","","","null","","","","","","
      <img class=""person-img"" src=""https://raw.githubusercontent.com/saramff/face-recognition-images/refs/heads/master//men/man_7.jpg"">
      <p class=""person-name"">Robert</p>
    ","","","",""
"null","","html-keyboard-response","351","2.0.0","421836","60zy6zoy4a7z31h","true","20","m&aumlnnlich","rechts","andere","","","null","","","","","","<div style=""font-size:60px;"">+</div>","fixation","","",""
"null","","html-keyboard-response","352","2.0.0","422841","60zy6zoy4a7z31h","true","20","m&aumlnnlich","rechts","andere","","","null","","","","","","
      <img class=""person-img"" src=""https://raw.githubusercontent.com/saramff/face-recognition-images/refs/heads/master//women/woman_39.jpg"">
      <p class=""person-name"">Celine</p>
    ","","","",""
"null","","html-keyboard-response","353","2.0.0","423858","60zy6zoy4a7z31h","true","20","m&aumlnnlich","rechts","andere","","","null","","","","","","<div style=""font-size:60px;"">+</div>","fixation","","",""
"null","","html-keyboard-response","354","2.0.0","424860","60zy6zoy4a7z31h","true","20","m&aumlnnlich","rechts","andere","","","null","","","","","","
      <img class=""person-img"" src=""https://raw.githubusercontent.com/saramff/face-recognition-images/refs/heads/master//men/man_18.jpg"">
      <p class=""person-name"">Paul</p>
    ","","","",""
"null","","html-keyboard-response","355","2.0.0","425879","60zy6zoy4a7z31h","true","20","m&aumlnnlich","rechts","andere","","","null","","","","","","<div style=""font-size:60px;"">+</div>","fixation","","",""
